;ExperimentName;Subject;Session;Age;Clock.Information;Display.RefreshRate;Group;Handedness;Name;RandomSeed;SessionDate;SessionTime;Sex;Block;blocklist;blocklist.Cycle;blocklist.Sample;blocklistp;blocklistp.Cycle;blocklistp.Sample;practisexp;Procedure[Block];Running[Block];Trial;Accuracy;blank.DurationError;blank.OnsetDelay;blank.OnsetTime;changecorrect;changedetected;changetype;firstG;firstL;matrix1.ACC;matrix1.CRESP;matrix1.DurationError;matrix1.OnsetDelay;matrix1.OnsetTime;matrix1.RESP;matrix1.RT;matrix1.RTTime;Procedure[Trial];Rating;rating.ACC;rating.CRESP;rating.DurationError;rating.OnsetDelay;rating.OnsetTime;rating.RESP;rating.RT;rating.RTTime;Running[Trial];s1;s2;s3;s4;s5;s6;s7;s8;s9;secondG;sencondL;triallist;triallist.Cycle;triallist.Sample;triallistp;triallistp.Cycle;triallistp.Sample;x9;y9
2;Hierarchical-CB-8-CIRCLE_v5;1;1;22;"<?xml version=""1.0""?>\n<Clock xmlns:dt=""urn:schemas-microsoft-com:datatypes""><Description dt:dt=""string"">E-Prime Primary Realtime Clock</Description><StartTime><Timestamp dt:dt=""int"">0</Timestamp><DateUtc dt:dt=""string"">2017-05-14T13:58:50Z</DateUtc></StartTime><FrequencyChanges><FrequencyChange><Frequency dt:dt=""r8"">10000000</Frequency><Timestamp dt:dt=""r8"">21712191420</Timestamp><Current dt:dt=""r8"">0</Current><DateUtc dt:dt=""string"">2017-05-14T13:58:50Z</DateUtc></FrequencyChange></FrequencyChanges></Clock>\n";0.0;1;diestro;cris;239250258;05-14-2017;15:58:50;mujer;2;1.0;1.0;1.0;;;;experimental;blockproc;blocklist;1;1;0;2;121230;7;7;GL;Z;O;0;;0;7;117428;{SPACE};3298;120726;trialproc;7;0;;-999999;8;121239;1;1569;122808;triallist;BMPs/Za.bmp;BMPs/Kh.bmp;BMPs/Cz.bmp;BMPs/Fk.bmp;BMPs/Kz.bmp;BMPs/Zn.bmp;BMPs/Zo.bmp;BMPs/Kf.bmp;BMPs/Mz.bmp;M;Z;21.0;1.0;1.0;;;;20;50
3;Hierarchical-CB-8-CIRCLE_v5;1;1;22;"<?xml version=""1.0""?>\n<Clock xmlns:dt=""urn:schemas-microsoft-com:datatypes""><Description dt:dt=""string"">E-Prime Primary Realtime Clock</Description><StartTime><Timestamp dt:dt=""int"">0</Timestamp><DateUtc dt:dt=""string"">2017-05-14T13:58:50Z</DateUtc></StartTime><FrequencyChanges><FrequencyChange><Frequency dt:dt=""r8"">10000000</Frequency><Timestamp dt:dt=""r8"">21712191420</Timestamp><Current dt:dt=""r8"">0</Current><DateUtc dt:dt=""string"">2017-05-14T13:58:50Z</DateUtc></FrequencyChange></FrequencyChanges></Clock>\n";0.0;1;diestro;cris;239250258;05-14-2017;15:58:50;mujer;2;1.0;1.0;1.0;;;;experimental;blockproc;blocklist;2;1;0;2;144686;3;3;L;M;F;0;;0;7;126082;{SPACE};18100;144182;trialproc;3;0;;-999999;8;144695;1;1715;146410;triallist;BMPs/Cz.bmp;BMPs/Na.bmp;BMPs/Mf.bmp;BMPs/Eu.bmp;BMPs/Nc.bmp;BMPs/Zu.bmp;BMPs/Kc.bmp;BMPs/Ec.bmp;BMPs/Ma.bmp;M;A;224.0;1.0;2.0;;;;80;50
4;Hierarchical-CB-8-CIRCLE_v5;1;1;22;"<?xml version=""1.0""?>\n<Clock xmlns:dt=""urn:schemas-microsoft-com:datatypes""><Description dt:dt=""string"">E-Prime Primary Realtime Clock</Description><StartTime><Timestamp dt:dt=""int"">0</Timestamp><DateUtc dt:dt=""string"">2017-05-14T13:58:50Z</DateUtc></StartTime><FrequencyChanges><FrequencyChange><Frequency dt:dt=""r8"">10000000</Frequency><Timestamp dt:dt=""r8"">21712191420</Timestamp><Current dt:dt=""r8"">0</Current><DateUtc dt:dt=""string"">2017-05-14T13:58:50Z</DateUtc></FrequencyChange></FrequencyChanges></Clock>\n";0.0;1;diestro;cris;239250258;05-14-2017;15:58:50;mujer;2;1.0;1.0;1.0;;;;experimental;blockproc;blocklist;3;1;0;2;158879;3;3;L;F;N;0;;0;6;149710;{SPACE};8665;158375;trialproc;3;0;;-999999;7;158887;1;958;159845;triallist;BMPs/Oh.bmp;BMPs/Mk.bmp;BMPs/Fn.bmp;BMPs/Nk.bmp;BMPs/Mf.bmp;BMPs/Hz.bmp;BMPs/Co.bmp;BMPs/Ko.bmp;BMPs/Fz.bmp;F;Z;917.0;1.0;3.0;;;;80;50
5;Hierarchical-CB-8-CIRCLE_v5;1;1;22;"<?xml version=""1.0""?>\n<Clock xmlns:dt=""urn:schemas-microsoft-com:datatypes""><Description dt:dt=""string"">E-Prime Primary Realtime Clock</Description><StartTime><Timestamp dt:dt=""int"">0</Timestamp><DateUtc dt:dt=""string"">2017-05-14T13:58:50Z</DateUtc></StartTime><FrequencyChanges><FrequencyChange><Frequency dt:dt=""r8"">10000000</Frequency><Timestamp dt:dt=""r8"">21712191420</Timestamp><Current dt:dt=""r8"">0</Current><DateUtc dt:dt=""string"">2017-05-14T13:58:50Z</DateUtc></FrequencyChange></FrequencyChanges></Clock>\n";0.0;1;diestro;cris;239250258;05-14-2017;15:58:50;mujer;2;1.0;1.0;1.0;;;;experimental;blockproc;blocklist;4;1;0;2;172130;5;5;GL;U;H;0;;0;7;163195;{SPACE};8431;171626;trialproc;5;0;;-999999;9;172140;1;1039;173179;triallist;BMPs/Ac.bmp;BMPs/Nh.bmp;BMPs/Of.bmp;BMPs/Oc.bmp;BMPs/Uh.bmp;BMPs/Ne.bmp;BMPs/Fa.bmp;BMPs/Ze.bmp;BMPs/Ha.bmp;H;A;398.0;1.0;4.0;;;;50;85
6;Hierarchical-CB-8-CIRCLE_v5;1;1;22;"<?xml version=""1.0""?>\n<Clock xmlns:dt=""urn:schemas-microsoft-com:datatypes""><Description dt:dt=""string"">E-Prime Primary Realtime Clock</Description><StartTime><Timestamp dt:dt=""int"">0</Timestamp><DateUtc dt:dt=""string"">2017-05-14T13:58:50Z</DateUtc></StartTime><FrequencyChanges><FrequencyChange><Frequency dt:dt=""r8"">10000000</Frequency><Timestamp dt:dt=""r8"">21712191420</Timestamp><Current dt:dt=""r8"">0</Current><DateUtc dt:dt=""string"">2017-05-14T13:58:50Z</DateUtc></FrequencyChange></FrequencyChanges></Clock>\n";0.0;1;diestro;cris;239250258;05-14-2017;15:58:50;mujer;2;1.0;1.0;1.0;;;;experimental;blockproc;blocklist;5;1;0;2;187942;4;4;GL;U;O;0;;0;6;176150;{SPACE};11288;187438;trialproc;4;0;;-999999;10;187953;1;905;188858;triallist;BMPs/Hu.bmp;BMPs/Mn.bmp;BMPs/Ef.bmp;BMPs/Uo.bmp;BMPs/Ma.bmp;BMPs/Ak.bmp;BMPs/Nz.bmp;BMPs/Eo.bmp;BMPs/Km.bmp;K;M;81.0;1.0;5.0;;;;71;73
7;Hierarchical-CB-8-CIRCLE_v5;1;1;22;"<?xml version=""1.0""?>\n<Clock xmlns:dt=""urn:schemas-microsoft-com:datatypes""><Description dt:dt=""string"">E-Prime Primary Realtime Clock</Description><StartTime><Timestamp dt:dt=""int"">0</Timestamp><DateUtc dt:dt=""string"">2017-05-14T13:58:50Z</DateUtc></StartTime><FrequencyChanges><FrequencyChange><Frequency dt:dt=""r8"">10000000</Frequency><Timestamp dt:dt=""r8"">21712191420</Timestamp><Current dt:dt=""r8"">0</Current><DateUtc dt:dt=""string"">2017-05-14T13:58:50Z</DateUtc></FrequencyChange></FrequencyChanges></Clock>\n";0.0;1;diestro;cris;239250258;05-14-2017;15:58:50;mujer;2;1.0;1.0;1.0;;;;experimental;blockproc;blocklist;6;1;0;2;201007;2;2;L;F;M;0;;0;7;191837;{SPACE};8666;200503;trialproc;2;0;;-999999;7;201015;1;1398;202413;triallist;BMPs/Zk.bmp;BMPs/Fm.bmp;BMPs/Nh.bmp;BMPs/Nz.bmp;BMPs/Nu.bmp;BMPs/Om.bmp;BMPs/Ah.bmp;BMPs/Zn.bmp;BMPs/Fz.bmp;F;Z;813.0;1.0;6.0;;;;71;28
8;Hierarchical-CB-8-CIRCLE_v5;1;1;22;"<?xml version=""1.0""?>\n<Clock xmlns:dt=""urn:schemas-microsoft-com:datatypes""><Description dt:dt=""string"">E-Prime Primary Realtime Clock</Description><StartTime><Timestamp dt:dt=""int"">0</Timestamp><DateUtc dt:dt=""string"">2017-05-14T13:58:50Z</DateUtc></StartTime><FrequencyChanges><FrequencyChange><Frequency dt:dt=""r8"">10000000</Frequency><Timestamp dt:dt=""r8"">21712191420</Timestamp><Current dt:dt=""r8"">0</Current><DateUtc dt:dt=""string"">2017-05-14T13:58:50Z</DateUtc></FrequencyChange></FrequencyChanges></Clock>\n";0.0;1;diestro;cris;239250258;05-14-2017;15:58:50;mujer;2;1.0;1.0;1.0;;;;experimental;blockproc;blocklist;7;1;0;2;210825;1;1;G;Z;U;0;;0;6;205364;{SPACE};4957;210321;trialproc;1;0;;-999999;9;210835;1;1331;212166;triallist;BMPs/Zu.bmp;BMPs/Ha.bmp;BMPs/Ck.bmp;BMPs/Hm.bmp;BMPs/Om.bmp;BMPs/Zk.bmp;BMPs/Zm.bmp;BMPs/Mo.bmp;BMPs/Eu.bmp;E;U;819.0;1.0;7.0;;;;50;15
9;Hierarchical-CB-8-CIRCLE_v5;1;1;22;"<?xml version=""1.0""?>\n<Clock xmlns:dt=""urn:schemas-microsoft-com:datatypes""><Description dt:dt=""string"">E-Prime Primary Realtime Clock</Description><StartTime><Timestamp dt:dt=""int"">0</Timestamp><DateUtc dt:dt=""string"">2017-05-14T13:58:50Z</DateUtc></StartTime><FrequencyChanges><FrequencyChange><Frequency dt:dt=""r8"">10000000</Frequency><Timestamp dt:dt=""r8"">21712191420</Timestamp><Current dt:dt=""r8"">0</Current><DateUtc dt:dt=""string"">2017-05-14T13:58:50Z</DateUtc></FrequencyChange></FrequencyChanges></Clock>\n";0.0;1;diestro;cris;239250258;05-14-2017;15:58:50;mujer;2;1.0;1.0;1.0;;;;experimental;blockproc;blocklist;8;1;0;2;222678;3;3;GL;U;N;0;;0;7;215037;{SPACE};7137;222174;trialproc;3;0;;-999999;7;222686;1;1144;223830;triallist;BMPs/Hc.bmp;BMPs/Of.bmp;BMPs/Un.bmp;BMPs/He.bmp;BMPs/Nk.bmp;BMPs/Eh.bmp;BMPs/Ue.bmp;BMPs/Ze.bmp;BMPs/Eo.bmp;E;O;211.0;1.0;8.0;;;;80;50
10;Hierarchical-CB-8-CIRCLE_v5;1;1;22;"<?xml version=""1.0""?>\n<Clock xmlns:dt=""urn:schemas-microsoft-com:datatypes""><Description dt:dt=""string"">E-Prime Primary Realtime Clock</Description><StartTime><Timestamp dt:dt=""int"">0</Timestamp><DateUtc dt:dt=""string"">2017-05-14T13:58:50Z</DateUtc></StartTime><FrequencyChanges><FrequencyChange><Frequency dt:dt=""r8"">10000000</Frequency><Timestamp dt:dt=""r8"">21712191420</Timestamp><Current dt:dt=""r8"">0</Current><DateUtc dt:dt=""string"">2017-05-14T13:58:50Z</DateUtc></FrequencyChange></FrequencyChanges></Clock>\n";0.0;1;diestro;cris;239250258;05-14-2017;15:58:50;mujer;2;1.0;1.0;1.0;;;;experimental;blockproc;blocklist;9;1;0;2;232176;5;5;G;M;E;0;;0;7;226884;{SPACE};4788;231672;trialproc;5;0;;-999999;7;232184;1;1066;233250;triallist;BMPs/Mk.bmp;BMPs/Ef.bmp;BMPs/Nz.bmp;BMPs/Oz.bmp;BMPs/Me.bmp;BMPs/Un.bmp;BMPs/Uf.bmp;BMPs/Fm.bmp;BMPs/Ne.bmp;N;E;654.0;1.0;9.0;;;;50;85
11;Hierarchical-CB-8-CIRCLE_v5;1;1;22;"<?xml version=""1.0""?>\n<Clock xmlns:dt=""urn:schemas-microsoft-com:datatypes""><Description dt:dt=""string"">E-Prime Primary Realtime Clock</Description><StartTime><Timestamp dt:dt=""int"">0</Timestamp><DateUtc dt:dt=""string"">2017-05-14T13:58:50Z</DateUtc></StartTime><FrequencyChanges><FrequencyChange><Frequency dt:dt=""r8"">10000000</Frequency><Timestamp dt:dt=""r8"">21712191420</Timestamp><Current dt:dt=""r8"">0</Current><DateUtc dt:dt=""string"">2017-05-14T13:58:50Z</DateUtc></FrequencyChange></FrequencyChanges></Clock>\n";0.0;1;diestro;cris;239250258;05-14-2017;15:58:50;mujer;2;1.0;1.0;1.0;;;;experimental;blockproc;blocklist;10;1;0;2;248389;5;5;G;A;K;0;;0;6;236346;{SPACE};11539;247885;trialproc;5;0;;-999999;8;248398;1;1144;249542;triallist;BMPs/Oz.bmp;BMPs/Nh.bmp;BMPs/Uf.bmp;BMPs/Ah.bmp;BMPs/Ak.bmp;BMPs/Mo.bmp;BMPs/Mh.bmp;BMPs/Az.bmp;BMPs/Nk.bmp;N;K;905.0;1.0;10.0;;;;50;85
12;Hierarchical-CB-8-CIRCLE_v5;1;1;22;"<?xml version=""1.0""?>\n<Clock xmlns:dt=""urn:schemas-microsoft-com:datatypes""><Description dt:dt=""string"">E-Prime Primary Realtime Clock</Description><StartTime><Timestamp dt:dt=""int"">0</Timestamp><DateUtc dt:dt=""string"">2017-05-14T13:58:50Z</DateUtc></StartTime><FrequencyChanges><FrequencyChange><Frequency dt:dt=""r8"">10000000</Frequency><Timestamp dt:dt=""r8"">21712191420</Timestamp><Current dt:dt=""r8"">0</Current><DateUtc dt:dt=""string"">2017-05-14T13:58:50Z</DateUtc></FrequencyChange></FrequencyChanges></Clock>\n";0.0;1;diestro;cris;239250258;05-14-2017;15:58:50;mujer;2;1.0;1.0;1.0;;;;experimental;blockproc;blocklist;11;1;0;2;257371;8;8;L;E;F;0;;0;6;252580;{SPACE};4287;256867;trialproc;8;0;;-999999;8;257380;1;1589;258969;triallist;BMPs/Ne.bmp;BMPs/Ck.bmp;BMPs/Fh.bmp;BMPs/Uk.bmp;BMPs/Uc.bmp;BMPs/Oz.bmp;BMPs/Az.bmp;BMPs/Ef.bmp;BMPs/Eh.bmp;E;H;620.0;1.0;11.0;;;;29;27
13;Hierarchical-CB-8-CIRCLE_v5;1;1;22;"<?xml version=""1.0""?>\n<Clock xmlns:dt=""urn:schemas-microsoft-com:datatypes""><Description dt:dt=""string"">E-Prime Primary Realtime Clock</Description><StartTime><Timestamp dt:dt=""int"">0</Timestamp><DateUtc dt:dt=""string"">2017-05-14T13:58:50Z</DateUtc></StartTime><FrequencyChanges><FrequencyChange><Frequency dt:dt=""r8"">10000000</Frequency><Timestamp dt:dt=""r8"">21712191420</Timestamp><Current dt:dt=""r8"">0</Current><DateUtc dt:dt=""string"">2017-05-14T13:58:50Z</DateUtc></FrequencyChange></FrequencyChanges></Clock>\n";0.0;1;diestro;cris;239250258;05-14-2017;15:58:50;mujer;2;1.0;1.0;1.0;;;;experimental;blockproc;blocklist;12;1;0;2;272264;2;2;L;K;Z;0;;0;6;261795;{SPACE};9965;271760;trialproc;2;0;;-999999;8;272273;1;1265;273538;triallist;BMPs/Ce.bmp;BMPs/Kz.bmp;BMPs/Kh.bmp;BMPs/Fo.bmp;BMPs/Ue.bmp;BMPs/Oe.bmp;BMPs/Hz.bmp;BMPs/Am.bmp;BMPs/Ke.bmp;K;E;334.0;1.0;12.0;;;;71;28
14;Hierarchical-CB-8-CIRCLE_v5;1;1;22;"<?xml version=""1.0""?>\n<Clock xmlns:dt=""urn:schemas-microsoft-com:datatypes""><Description dt:dt=""string"">E-Prime Primary Realtime Clock</Description><StartTime><Timestamp dt:dt=""int"">0</Timestamp><DateUtc dt:dt=""string"">2017-05-14T13:58:50Z</DateUtc></StartTime><FrequencyChanges><FrequencyChange><Frequency dt:dt=""r8"">10000000</Frequency><Timestamp dt:dt=""r8"">21712191420</Timestamp><Current dt:dt=""r8"">0</Current><DateUtc dt:dt=""string"">2017-05-14T13:58:50Z</DateUtc></FrequencyChange></FrequencyChanges></Clock>\n";0.0;1;diestro;cris;239250258;05-14-2017;15:58:50;mujer;2;1.0;1.0;1.0;;;;experimental;blockproc;blocklist;13;1;0;2;279992;2;2;GL;H;A;0;;0;6;276328;{SPACE};3160;279488;trialproc;2;0;;-999999;10;280003;1;976;280979;triallist;BMPs/Fc.bmp;BMPs/Ha.bmp;BMPs/Km.bmp;BMPs/On.bmp;BMPs/Kn.bmp;BMPs/Hn.bmp;BMPs/Uf.bmp;BMPs/Hu.bmp;BMPs/Co.bmp;C;O;54.0;1.0;13.0;;;;71;28
15;Hierarchical-CB-8-CIRCLE_v5;1;1;22;"<?xml version=""1.0""?>\n<Clock xmlns:dt=""urn:schemas-microsoft-com:datatypes""><Description dt:dt=""string"">E-Prime Primary Realtime Clock</Description><StartTime><Timestamp dt:dt=""int"">0</Timestamp><DateUtc dt:dt=""string"">2017-05-14T13:58:50Z</DateUtc></StartTime><FrequencyChanges><FrequencyChange><Frequency dt:dt=""r8"">10000000</Frequency><Timestamp dt:dt=""r8"">21712191420</Timestamp><Current dt:dt=""r8"">0</Current><DateUtc dt:dt=""string"">2017-05-14T13:58:50Z</DateUtc></FrequencyChange></FrequencyChanges></Clock>\n";0.0;1;diestro;cris;239250258;05-14-2017;15:58:50;mujer;2;1.0;1.0;1.0;;;;experimental;blockproc;blocklist;14;1;0;2;293193;5;5;L;Z;E;0;;0;6;284045;{SPACE};8644;292689;trialproc;5;0;;-999999;8;293202;1;1824;295026;triallist;BMPs/Um.bmp;BMPs/Zh.bmp;BMPs/Nc.bmp;BMPs/Mu.bmp;BMPs/Ze.bmp;BMPs/Fe.bmp;BMPs/Kh.bmp;BMPs/Za.bmp;BMPs/Zf.bmp;Z;F;991.0;1.0;14.0;;;;50;85
16;Hierarchical-CB-8-CIRCLE_v5;1;1;22;"<?xml version=""1.0""?>\n<Clock xmlns:dt=""urn:schemas-microsoft-com:datatypes""><Description dt:dt=""string"">E-Prime Primary Realtime Clock</Description><StartTime><Timestamp dt:dt=""int"">0</Timestamp><DateUtc dt:dt=""string"">2017-05-14T13:58:50Z</DateUtc></StartTime><FrequencyChanges><FrequencyChange><Frequency dt:dt=""r8"">10000000</Frequency><Timestamp dt:dt=""r8"">21712191420</Timestamp><Current dt:dt=""r8"">0</Current><DateUtc dt:dt=""string"">2017-05-14T13:58:50Z</DateUtc></FrequencyChange></FrequencyChanges></Clock>\n";0.0;1;diestro;cris;239250258;05-14-2017;15:58:50;mujer;2;1.0;1.0;1.0;;;;experimental;blockproc;blocklist;15;1;0;2;310391;5;5;L;N;A;0;;0;6;298373;{SPACE};11514;309887;trialproc;5;0;;-999999;11;310403;1;2141;312544;triallist;BMPs/An.bmp;BMPs/Hc.bmp;BMPs/Am.bmp;BMPs/Fm.bmp;BMPs/Na.bmp;BMPs/Hk.bmp;BMPs/Ca.bmp;BMPs/Mk.bmp;BMPs/Nh.bmp;N;H;471.0;1.0;15.0;;;;50;85
17;Hierarchical-CB-8-CIRCLE_v5;1;1;22;"<?xml version=""1.0""?>\n<Clock xmlns:dt=""urn:schemas-microsoft-com:datatypes""><Description dt:dt=""string"">E-Prime Primary Realtime Clock</Description><StartTime><Timestamp dt:dt=""int"">0</Timestamp><DateUtc dt:dt=""string"">2017-05-14T13:58:50Z</DateUtc></StartTime><FrequencyChanges><FrequencyChange><Frequency dt:dt=""r8"">10000000</Frequency><Timestamp dt:dt=""r8"">21712191420</Timestamp><Current dt:dt=""r8"">0</Current><DateUtc dt:dt=""string"">2017-05-14T13:58:50Z</DateUtc></FrequencyChange></FrequencyChanges></Clock>\n";0.0;1;diestro;cris;239250258;05-14-2017;15:58:50;mujer;2;1.0;1.0;1.0;;;;experimental;blockproc;blocklist;16;1;0;2;320116;6;6;G;K;M;0;;0;6;315719;{SPACE};3893;319612;trialproc;6;0;;-999999;7;320124;1;1504;321628;triallist;BMPs/Oz.bmp;BMPs/Ne.bmp;BMPs/Hk.bmp;BMPs/Uk.bmp;BMPs/Oa.bmp;BMPs/Km.bmp;BMPs/Ou.bmp;BMPs/Uo.bmp;BMPs/Om.bmp;O;M;868.0;1.0;16.0;;;;29;73
18;Hierarchical-CB-8-CIRCLE_v5;1;1;22;"<?xml version=""1.0""?>\n<Clock xmlns:dt=""urn:schemas-microsoft-com:datatypes""><Description dt:dt=""string"">E-Prime Primary Realtime Clock</Description><StartTime><Timestamp dt:dt=""int"">0</Timestamp><DateUtc dt:dt=""string"">2017-05-14T13:58:50Z</DateUtc></StartTime><FrequencyChanges><FrequencyChange><Frequency dt:dt=""r8"">10000000</Frequency><Timestamp dt:dt=""r8"">21712191420</Timestamp><Current dt:dt=""r8"">0</Current><DateUtc dt:dt=""string"">2017-05-14T13:58:50Z</DateUtc></FrequencyChange></FrequencyChanges></Clock>\n";0.0;1;diestro;cris;239250258;05-14-2017;15:58:50;mujer;2;1.0;1.0;1.0;;;;experimental;blockproc;blocklist;17;1;1;2;333685;4;4;G;U;C;0;;0;6;324836;{SPACE};8345;333181;trialproc;4;0;;-999999;11;333697;1;878;334575;triallist;BMPs/Eh.bmp;BMPs/Uk.bmp;BMPs/Ko.bmp;BMPs/Uc.bmp;BMPs/Zf.bmp;BMPs/Au.bmp;BMPs/Mh.bmp;BMPs/Uo.bmp;BMPs/Mc.bmp;M;C;815.0;1.0;17.0;;;;71;73
19;Hierarchical-CB-8-CIRCLE_v5;1;1;22;"<?xml version=""1.0""?>\n<Clock xmlns:dt=""urn:schemas-microsoft-com:datatypes""><Description dt:dt=""string"">E-Prime Primary Realtime Clock</Description><StartTime><Timestamp dt:dt=""int"">0</Timestamp><DateUtc dt:dt=""string"">2017-05-14T13:58:50Z</DateUtc></StartTime><FrequencyChanges><FrequencyChange><Frequency dt:dt=""r8"">10000000</Frequency><Timestamp dt:dt=""r8"">21712191420</Timestamp><Current dt:dt=""r8"">0</Current><DateUtc dt:dt=""string"">2017-05-14T13:58:50Z</DateUtc></FrequencyChange></FrequencyChanges></Clock>\n";0.0;1;diestro;cris;239250258;05-14-2017;15:58:50;mujer;2;1.0;1.0;1.0;;;;experimental;blockproc;blocklist;18;1;0;2;340727;1;1;G;K;U;0;;0;7;338132;{SPACE};2091;340223;trialproc;1;0;;-999999;7;340735;1;1267;342002;triallist;BMPs/Ku.bmp;BMPs/Hz.bmp;BMPs/Ha.bmp;BMPs/Eo.bmp;BMPs/Ka.bmp;BMPs/Ch.bmp;BMPs/Cu.bmp;BMPs/Eu.bmp;BMPs/Nu.bmp;N;U;787.0;1.0;18.0;;;;50;15
20;Hierarchical-CB-8-CIRCLE_v5;1;1;22;"<?xml version=""1.0""?>\n<Clock xmlns:dt=""urn:schemas-microsoft-com:datatypes""><Description dt:dt=""string"">E-Prime Primary Realtime Clock</Description><StartTime><Timestamp dt:dt=""int"">0</Timestamp><DateUtc dt:dt=""string"">2017-05-14T13:58:50Z</DateUtc></StartTime><FrequencyChanges><FrequencyChange><Frequency dt:dt=""r8"">10000000</Frequency><Timestamp dt:dt=""r8"">21712191420</Timestamp><Current dt:dt=""r8"">0</Current><DateUtc dt:dt=""string"">2017-05-14T13:58:50Z</DateUtc></FrequencyChange></FrequencyChanges></Clock>\n";0.0;1;diestro;cris;239250258;05-14-2017;15:58:50;mujer;2;1.0;1.0;1.0;;;;experimental;blockproc;blocklist;19;1;0;2;354082;4;4;GL;O;U;0;;0;6;345041;{SPACE};8536;353577;trialproc;4;0;;-999999;8;354091;1;1955;356046;triallist;BMPs/Zh.bmp;BMPs/Mn.bmp;BMPs/Zf.bmp;BMPs/Ou.bmp;BMPs/On.bmp;BMPs/Hn.bmp;BMPs/Fc.bmp;BMPs/Ao.bmp;BMPs/Ak.bmp;A;K;269.0;1.0;19.0;;;;71;73
21;Hierarchical-CB-8-CIRCLE_v5;1;1;22;"<?xml version=""1.0""?>\n<Clock xmlns:dt=""urn:schemas-microsoft-com:datatypes""><Description dt:dt=""string"">E-Prime Primary Realtime Clock</Description><StartTime><Timestamp dt:dt=""int"">0</Timestamp><DateUtc dt:dt=""string"">2017-05-14T13:58:50Z</DateUtc></StartTime><FrequencyChanges><FrequencyChange><Frequency dt:dt=""r8"">10000000</Frequency><Timestamp dt:dt=""r8"">21712191420</Timestamp><Current dt:dt=""r8"">0</Current><DateUtc dt:dt=""string"">2017-05-14T13:58:50Z</DateUtc></FrequencyChange></FrequencyChanges></Clock>\n";0.0;1;diestro;cris;239250258;05-14-2017;15:58:50;mujer;2;1.0;1.0;1.0;;;;experimental;blockproc;blocklist;20;1;0;2;369335;7;7;GL;O;E;0;;0;7;359114;{SPACE};9717;368831;trialproc;7;0;;-999999;7;369343;1;1368;370711;triallist;BMPs/Eo.bmp;BMPs/Zf.bmp;BMPs/Fh.bmp;BMPs/Hn.bmp;BMPs/Ec.bmp;BMPs/Ae.bmp;BMPs/Oe.bmp;BMPs/Nc.bmp;BMPs/Fm.bmp;F;M;331.0;1.0;20.0;;;;20;50
22;Hierarchical-CB-8-CIRCLE_v5;1;1;22;"<?xml version=""1.0""?>\n<Clock xmlns:dt=""urn:schemas-microsoft-com:datatypes""><Description dt:dt=""string"">E-Prime Primary Realtime Clock</Description><StartTime><Timestamp dt:dt=""int"">0</Timestamp><DateUtc dt:dt=""string"">2017-05-14T13:58:50Z</DateUtc></StartTime><FrequencyChanges><FrequencyChange><Frequency dt:dt=""r8"">10000000</Frequency><Timestamp dt:dt=""r8"">21712191420</Timestamp><Current dt:dt=""r8"">0</Current><DateUtc dt:dt=""string"">2017-05-14T13:58:50Z</DateUtc></FrequencyChange></FrequencyChanges></Clock>\n";0.0;1;diestro;cris;239250258;05-14-2017;15:58:50;mujer;2;1.0;1.0;1.0;;;;experimental;blockproc;blocklist;21;1;0;2;382695;1;1;G;U;A;0;;0;6;373596;{SPACE};8595;382191;trialproc;1;0;;-999999;10;382706;1;1128;383834;triallist;BMPs/Ua.bmp;BMPs/Hn.bmp;BMPs/Nk.bmp;BMPs/Km.bmp;BMPs/Ko.bmp;BMPs/Ze.bmp;BMPs/Kn.bmp;BMPs/Fa.bmp;BMPs/Ca.bmp;C;A;445.0;1.0;21.0;;;;50;15
23;Hierarchical-CB-8-CIRCLE_v5;1;1;22;"<?xml version=""1.0""?>\n<Clock xmlns:dt=""urn:schemas-microsoft-com:datatypes""><Description dt:dt=""string"">E-Prime Primary Realtime Clock</Description><StartTime><Timestamp dt:dt=""int"">0</Timestamp><DateUtc dt:dt=""string"">2017-05-14T13:58:50Z</DateUtc></StartTime><FrequencyChanges><FrequencyChange><Frequency dt:dt=""r8"">10000000</Frequency><Timestamp dt:dt=""r8"">21712191420</Timestamp><Current dt:dt=""r8"">0</Current><DateUtc dt:dt=""string"">2017-05-14T13:58:50Z</DateUtc></FrequencyChange></FrequencyChanges></Clock>\n";0.0;1;diestro;cris;239250258;05-14-2017;15:58:50;mujer;2;1.0;1.0;1.0;;;;experimental;blockproc;blocklist;22;1;0;2;402240;2;2;G;U;K;0;;0;6;386746;{SPACE};14990;401736;trialproc;2;0;;-999999;13;402254;1;1760;404014;triallist;BMPs/Ok.bmp;BMPs/Uk.bmp;BMPs/Cu.bmp;BMPs/Hc.bmp;BMPs/Ma.bmp;BMPs/Fc.bmp;BMPs/Oe.bmp;BMPs/Ec.bmp;BMPs/Nk.bmp;N;K;540.0;1.0;22.0;;;;71;28
24;Hierarchical-CB-8-CIRCLE_v5;1;1;22;"<?xml version=""1.0""?>\n<Clock xmlns:dt=""urn:schemas-microsoft-com:datatypes""><Description dt:dt=""string"">E-Prime Primary Realtime Clock</Description><StartTime><Timestamp dt:dt=""int"">0</Timestamp><DateUtc dt:dt=""string"">2017-05-14T13:58:50Z</DateUtc></StartTime><FrequencyChanges><FrequencyChange><Frequency dt:dt=""r8"">10000000</Frequency><Timestamp dt:dt=""r8"">21712191420</Timestamp><Current dt:dt=""r8"">0</Current><DateUtc dt:dt=""string"">2017-05-14T13:58:50Z</DateUtc></FrequencyChange></FrequencyChanges></Clock>\n";0.0;1;diestro;cris;239250258;05-14-2017;15:58:50;mujer;2;1.0;1.0;1.0;;;;experimental;blockproc;blocklist;23;1;0;2;413757;5;5;GL;C;Z;0;;0;6;407044;{SPACE};6209;413253;trialproc;5;0;;-999999;7;413765;1;1184;414949;triallist;BMPs/Oh.bmp;BMPs/Mo.bmp;BMPs/Mz.bmp;BMPs/Ek.bmp;BMPs/Cz.bmp;BMPs/Zk.bmp;BMPs/Zh.bmp;BMPs/Fk.bmp;BMPs/Me.bmp;M;E;293.0;1.0;23.0;;;;50;85
25;Hierarchical-CB-8-CIRCLE_v5;1;1;22;"<?xml version=""1.0""?>\n<Clock xmlns:dt=""urn:schemas-microsoft-com:datatypes""><Description dt:dt=""string"">E-Prime Primary Realtime Clock</Description><StartTime><Timestamp dt:dt=""int"">0</Timestamp><DateUtc dt:dt=""string"">2017-05-14T13:58:50Z</DateUtc></StartTime><FrequencyChanges><FrequencyChange><Frequency dt:dt=""r8"">10000000</Frequency><Timestamp dt:dt=""r8"">21712191420</Timestamp><Current dt:dt=""r8"">0</Current><DateUtc dt:dt=""string"">2017-05-14T13:58:50Z</DateUtc></FrequencyChange></FrequencyChanges></Clock>\n";0.0;1;diestro;cris;239250258;05-14-2017;15:58:50;mujer;2;1.0;1.0;1.0;;;;experimental;blockproc;blocklist;24;1;0;2;428641;1;1;GL;O;F;0;;0;6;417866;{SPACE};10271;428137;trialproc;1;0;;-999999;7;428649;1;1334;429983;triallist;BMPs/Of.bmp;BMPs/Nu.bmp;BMPs/Uo.bmp;BMPs/Hc.bmp;BMPs/Oh.bmp;BMPs/Ec.bmp;BMPs/Zm.bmp;BMPs/Eu.bmp;BMPs/Hu.bmp;H;U;190.0;1.0;24.0;;;;50;15
26;Hierarchical-CB-8-CIRCLE_v5;1;1;22;"<?xml version=""1.0""?>\n<Clock xmlns:dt=""urn:schemas-microsoft-com:datatypes""><Description dt:dt=""string"">E-Prime Primary Realtime Clock</Description><StartTime><Timestamp dt:dt=""int"">0</Timestamp><DateUtc dt:dt=""string"">2017-05-14T13:58:50Z</DateUtc></StartTime><FrequencyChanges><FrequencyChange><Frequency dt:dt=""r8"">10000000</Frequency><Timestamp dt:dt=""r8"">21712191420</Timestamp><Current dt:dt=""r8"">0</Current><DateUtc dt:dt=""string"">2017-05-14T13:58:50Z</DateUtc></FrequencyChange></FrequencyChanges></Clock>\n";0.0;1;diestro;cris;239250258;05-14-2017;15:58:50;mujer;2;1.0;1.0;1.0;;;;experimental;blockproc;blocklist;25;1;0;2;436379;1;1;GL;A;K;0;;0;6;432845;{SPACE};3030;435875;trialproc;1;0;;-999999;7;436387;1;471;436858;triallist;BMPs/Ak.bmp;BMPs/Nh.bmp;BMPs/Zc.bmp;BMPs/Uk.bmp;BMPs/Mk.bmp;BMPs/Ef.bmp;BMPs/An.bmp;BMPs/Ue.bmp;BMPs/Ou.bmp;O;U;119.0;1.0;25.0;;;;50;15
27;Hierarchical-CB-8-CIRCLE_v5;1;1;22;"<?xml version=""1.0""?>\n<Clock xmlns:dt=""urn:schemas-microsoft-com:datatypes""><Description dt:dt=""string"">E-Prime Primary Realtime Clock</Description><StartTime><Timestamp dt:dt=""int"">0</Timestamp><DateUtc dt:dt=""string"">2017-05-14T13:58:50Z</DateUtc></StartTime><FrequencyChanges><FrequencyChange><Frequency dt:dt=""r8"">10000000</Frequency><Timestamp dt:dt=""r8"">21712191420</Timestamp><Current dt:dt=""r8"">0</Current><DateUtc dt:dt=""string"">2017-05-14T13:58:50Z</DateUtc></FrequencyChange></FrequencyChanges></Clock>\n";0.0;1;diestro;cris;239250258;05-14-2017;15:58:50;mujer;2;1.0;1.0;1.0;;;;experimental;blockproc;blocklist;26;1;0;2;448394;5;5;G;M;O;0;;0;6;440628;{SPACE};7261;447889;trialproc;5;0;;-999999;9;448404;1;1004;449408;triallist;BMPs/Um.bmp;BMPs/Hf.bmp;BMPs/Fa.bmp;BMPs/Uo.bmp;BMPs/Mo.bmp;BMPs/Zk.bmp;BMPs/Fz.bmp;BMPs/Zc.bmp;BMPs/Co.bmp;C;O;13.0;1.0;26.0;;;;50;85
28;Hierarchical-CB-8-CIRCLE_v5;1;1;22;"<?xml version=""1.0""?>\n<Clock xmlns:dt=""urn:schemas-microsoft-com:datatypes""><Description dt:dt=""string"">E-Prime Primary Realtime Clock</Description><StartTime><Timestamp dt:dt=""int"">0</Timestamp><DateUtc dt:dt=""string"">2017-05-14T13:58:50Z</DateUtc></StartTime><FrequencyChanges><FrequencyChange><Frequency dt:dt=""r8"">10000000</Frequency><Timestamp dt:dt=""r8"">21712191420</Timestamp><Current dt:dt=""r8"">0</Current><DateUtc dt:dt=""string"">2017-05-14T13:58:50Z</DateUtc></FrequencyChange></FrequencyChanges></Clock>\n";0.0;1;diestro;cris;239250258;05-14-2017;15:58:50;mujer;2;1.0;1.0;1.0;;;;experimental;blockproc;blocklist;27;1;0;2;466471;3;3;G;U;H;0;;0;6;452265;{SPACE};13702;465967;trialproc;3;0;;-999999;9;466481;1;702;467183;triallist;BMPs/Mh.bmp;BMPs/Ce.bmp;BMPs/Uh.bmp;BMPs/Kc.bmp;BMPs/Ou.bmp;BMPs/Kn.bmp;BMPs/Zm.bmp;BMPs/On.bmp;BMPs/Nh.bmp;N;H;595.0;1.0;27.0;;;;80;50
29;Hierarchical-CB-8-CIRCLE_v5;1;1;22;"<?xml version=""1.0""?>\n<Clock xmlns:dt=""urn:schemas-microsoft-com:datatypes""><Description dt:dt=""string"">E-Prime Primary Realtime Clock</Description><StartTime><Timestamp dt:dt=""int"">0</Timestamp><DateUtc dt:dt=""string"">2017-05-14T13:58:50Z</DateUtc></StartTime><FrequencyChanges><FrequencyChange><Frequency dt:dt=""r8"">10000000</Frequency><Timestamp dt:dt=""r8"">21712191420</Timestamp><Current dt:dt=""r8"">0</Current><DateUtc dt:dt=""string"">2017-05-14T13:58:50Z</DateUtc></FrequencyChange></FrequencyChanges></Clock>\n";0.0;1;diestro;cris;239250258;05-14-2017;15:58:50;mujer;2;1.0;1.0;1.0;;;;experimental;blockproc;blocklist;28;1;0;2;482160;7;7;G;H;O;0;;0;6;470180;{SPACE};11476;481656;trialproc;7;0;;-999999;8;482169;1;849;483018;triallist;BMPs/Cn.bmp;BMPs/Oa.bmp;BMPs/Nf.bmp;BMPs/Af.bmp;BMPs/Ck.bmp;BMPs/Mo.bmp;BMPs/Ho.bmp;BMPs/Nh.bmp;BMPs/Ao.bmp;A;O;838.0;1.0;28.0;;;;20;50
30;Hierarchical-CB-8-CIRCLE_v5;1;1;22;"<?xml version=""1.0""?>\n<Clock xmlns:dt=""urn:schemas-microsoft-com:datatypes""><Description dt:dt=""string"">E-Prime Primary Realtime Clock</Description><StartTime><Timestamp dt:dt=""int"">0</Timestamp><DateUtc dt:dt=""string"">2017-05-14T13:58:50Z</DateUtc></StartTime><FrequencyChanges><FrequencyChange><Frequency dt:dt=""r8"">10000000</Frequency><Timestamp dt:dt=""r8"">21712191420</Timestamp><Current dt:dt=""r8"">0</Current><DateUtc dt:dt=""string"">2017-05-14T13:58:50Z</DateUtc></FrequencyChange></FrequencyChanges></Clock>\n";0.0;1;diestro;cris;239250258;05-14-2017;15:58:50;mujer;2;1.0;1.0;1.0;;;;experimental;blockproc;blocklist;29;1;0;2;497443;1;1;L;C;M;0;;0;6;485949;{SPACE};10990;496939;trialproc;1;0;;-999999;11;497455;1;753;498208;triallist;BMPs/Cm.bmp;BMPs/Ak.bmp;BMPs/Ck.bmp;BMPs/Kf.bmp;BMPs/Nz.bmp;BMPs/Au.bmp;BMPs/Nf.bmp;BMPs/Uo.bmp;BMPs/Co.bmp;C;O;629.0;1.0;29.0;;;;50;15
31;Hierarchical-CB-8-CIRCLE_v5;1;1;22;"<?xml version=""1.0""?>\n<Clock xmlns:dt=""urn:schemas-microsoft-com:datatypes""><Description dt:dt=""string"">E-Prime Primary Realtime Clock</Description><StartTime><Timestamp dt:dt=""int"">0</Timestamp><DateUtc dt:dt=""string"">2017-05-14T13:58:50Z</DateUtc></StartTime><FrequencyChanges><FrequencyChange><Frequency dt:dt=""r8"">10000000</Frequency><Timestamp dt:dt=""r8"">21712191420</Timestamp><Current dt:dt=""r8"">0</Current><DateUtc dt:dt=""string"">2017-05-14T13:58:50Z</DateUtc></FrequencyChange></FrequencyChanges></Clock>\n";0.0;1;diestro;cris;239250258;05-14-2017;15:58:50;mujer;2;1.0;1.0;1.0;;;;experimental;blockproc;blocklist;30;1;0;2;507769;5;5;G;Z;E;0;;0;7;501068;{SPACE};6197;507265;trialproc;5;0;;-999999;7;507777;1;1405;509182;triallist;BMPs/Hn.bmp;BMPs/Co.bmp;BMPs/Nm.bmp;BMPs/Ok.bmp;BMPs/Ze.bmp;BMPs/Nk.bmp;BMPs/Nz.bmp;BMPs/Oe.bmp;BMPs/Ue.bmp;U;E;789.0;1.0;30.0;;;;50;85
32;Hierarchical-CB-8-CIRCLE_v5;1;1;22;"<?xml version=""1.0""?>\n<Clock xmlns:dt=""urn:schemas-microsoft-com:datatypes""><Description dt:dt=""string"">E-Prime Primary Realtime Clock</Description><StartTime><Timestamp dt:dt=""int"">0</Timestamp><DateUtc dt:dt=""string"">2017-05-14T13:58:50Z</DateUtc></StartTime><FrequencyChanges><FrequencyChange><Frequency dt:dt=""r8"">10000000</Frequency><Timestamp dt:dt=""r8"">21712191420</Timestamp><Current dt:dt=""r8"">0</Current><DateUtc dt:dt=""string"">2017-05-14T13:58:50Z</DateUtc></FrequencyChange></FrequencyChanges></Clock>\n";0.0;1;diestro;cris;239250258;05-14-2017;15:58:50;mujer;2;1.0;1.0;1.0;;;;experimental;blockproc;blocklist;31;1;0;2;521341;6;6;G;Z;E;0;;0;6;512246;{SPACE};8591;520837;trialproc;6;0;;-999999;7;521349;1;875;522224;triallist;BMPs/Mh.bmp;BMPs/Mf.bmp;BMPs/Nc.bmp;BMPs/Ah.bmp;BMPs/Ho.bmp;BMPs/Ze.bmp;BMPs/Co.bmp;BMPs/Fm.bmp;BMPs/Ne.bmp;N;E;409.0;1.0;31.0;;;;29;73
33;Hierarchical-CB-8-CIRCLE_v5;1;1;22;"<?xml version=""1.0""?>\n<Clock xmlns:dt=""urn:schemas-microsoft-com:datatypes""><Description dt:dt=""string"">E-Prime Primary Realtime Clock</Description><StartTime><Timestamp dt:dt=""int"">0</Timestamp><DateUtc dt:dt=""string"">2017-05-14T13:58:50Z</DateUtc></StartTime><FrequencyChanges><FrequencyChange><Frequency dt:dt=""r8"">10000000</Frequency><Timestamp dt:dt=""r8"">21712191420</Timestamp><Current dt:dt=""r8"">0</Current><DateUtc dt:dt=""string"">2017-05-14T13:58:50Z</DateUtc></FrequencyChange></FrequencyChanges></Clock>\n";0.0;1;diestro;cris;239250258;05-14-2017;15:58:50;mujer;2;1.0;1.0;1.0;;;;experimental;blockproc;blocklist;32;1;0;2;533635;3;3;GL;E;K;0;;0;6;525804;{SPACE};7327;533131;trialproc;3;0;;-999999;8;533644;1;981;534625;triallist;BMPs/Eo.bmp;BMPs/Ko.bmp;BMPs/Ek.bmp;BMPs/Ka.bmp;BMPs/Uk.bmp;BMPs/Ao.bmp;BMPs/Km.bmp;BMPs/Zn.bmp;BMPs/He.bmp;H;E;342.0;1.0;32.0;;;;80;50
34;Hierarchical-CB-8-CIRCLE_v5;1;1;22;"<?xml version=""1.0""?>\n<Clock xmlns:dt=""urn:schemas-microsoft-com:datatypes""><Description dt:dt=""string"">E-Prime Primary Realtime Clock</Description><StartTime><Timestamp dt:dt=""int"">0</Timestamp><DateUtc dt:dt=""string"">2017-05-14T13:58:50Z</DateUtc></StartTime><FrequencyChanges><FrequencyChange><Frequency dt:dt=""r8"">10000000</Frequency><Timestamp dt:dt=""r8"">21712191420</Timestamp><Current dt:dt=""r8"">0</Current><DateUtc dt:dt=""string"">2017-05-14T13:58:50Z</DateUtc></FrequencyChange></FrequencyChanges></Clock>\n";0.0;1;diestro;cris;239250258;05-14-2017;15:58:50;mujer;2;1.0;1.0;1.0;;;;experimental;blockproc;blocklist;33;1;0;2;559024;3;3;GL;N;U;0;;0;6;537655;{SPACE};20865;558520;trialproc;3;0;;-999999;9;559034;1;1004;560038;triallist;BMPs/Fh.bmp;BMPs/Oe.bmp;BMPs/Nu.bmp;BMPs/Hu.bmp;BMPs/Oh.bmp;BMPs/Ce.bmp;BMPs/Hf.bmp;BMPs/Ou.bmp;BMPs/En.bmp;E;N;272.0;1.0;33.0;;;;80;50
35;Hierarchical-CB-8-CIRCLE_v5;1;1;22;"<?xml version=""1.0""?>\n<Clock xmlns:dt=""urn:schemas-microsoft-com:datatypes""><Description dt:dt=""string"">E-Prime Primary Realtime Clock</Description><StartTime><Timestamp dt:dt=""int"">0</Timestamp><DateUtc dt:dt=""string"">2017-05-14T13:58:50Z</DateUtc></StartTime><FrequencyChanges><FrequencyChange><Frequency dt:dt=""r8"">10000000</Frequency><Timestamp dt:dt=""r8"">21712191420</Timestamp><Current dt:dt=""r8"">0</Current><DateUtc dt:dt=""string"">2017-05-14T13:58:50Z</DateUtc></FrequencyChange></FrequencyChanges></Clock>\n";0.0;1;diestro;cris;239250258;05-14-2017;15:58:50;mujer;2;1.0;1.0;1.0;;;;experimental;blockproc;blocklist;34;1;0;2;577965;7;7;L;A;F;0;;0;6;564571;{SPACE};12890;577461;trialproc;7;0;;-999999;10;577976;1;1286;579262;triallist;BMPs/Cn.bmp;BMPs/Eh.bmp;BMPs/Fk.bmp;BMPs/Fu.bmp;BMPs/Hm.bmp;BMPs/Am.bmp;BMPs/Af.bmp;BMPs/Mu.bmp;BMPs/Ak.bmp;A;K;878.0;1.0;34.0;;;;20;50
36;Hierarchical-CB-8-CIRCLE_v5;1;1;22;"<?xml version=""1.0""?>\n<Clock xmlns:dt=""urn:schemas-microsoft-com:datatypes""><Description dt:dt=""string"">E-Prime Primary Realtime Clock</Description><StartTime><Timestamp dt:dt=""int"">0</Timestamp><DateUtc dt:dt=""string"">2017-05-14T13:58:50Z</DateUtc></StartTime><FrequencyChanges><FrequencyChange><Frequency dt:dt=""r8"">10000000</Frequency><Timestamp dt:dt=""r8"">21712191420</Timestamp><Current dt:dt=""r8"">0</Current><DateUtc dt:dt=""string"">2017-05-14T13:58:50Z</DateUtc></FrequencyChange></FrequencyChanges></Clock>\n";0.0;1;diestro;cris;239250258;05-14-2017;15:58:50;mujer;2;1.0;1.0;1.0;;;;experimental;blockproc;blocklist;35;1;0;2;607931;4;4;L;H;U;0;;0;6;583183;{SPACE};24244;607427;trialproc;4;0;;-999999;9;607941;1;1227;609168;triallist;BMPs/On.bmp;BMPs/Zf.bmp;BMPs/Mk.bmp;BMPs/Hu.bmp;BMPs/Kh.bmp;BMPs/Ca.bmp;BMPs/Fa.bmp;BMPs/Ah.bmp;BMPs/Ho.bmp;H;O;699.0;1.0;35.0;;;;71;73
37;Hierarchical-CB-8-CIRCLE_v5;1;1;22;"<?xml version=""1.0""?>\n<Clock xmlns:dt=""urn:schemas-microsoft-com:datatypes""><Description dt:dt=""string"">E-Prime Primary Realtime Clock</Description><StartTime><Timestamp dt:dt=""int"">0</Timestamp><DateUtc dt:dt=""string"">2017-05-14T13:58:50Z</DateUtc></StartTime><FrequencyChanges><FrequencyChange><Frequency dt:dt=""r8"">10000000</Frequency><Timestamp dt:dt=""r8"">21712191420</Timestamp><Current dt:dt=""r8"">0</Current><DateUtc dt:dt=""string"">2017-05-14T13:58:50Z</DateUtc></FrequencyChange></FrequencyChanges></Clock>\n";0.0;1;diestro;cris;239250258;05-14-2017;15:58:50;mujer;2;1.0;1.0;1.0;;;;experimental;blockproc;blocklist;36;1;0;2;621517;3;3;L;E;M;0;;0;6;612186;{SPACE};8827;621013;trialproc;3;0;;-999999;9;621527;1;884;622411;triallist;BMPs/Nu.bmp;BMPs/Ek.bmp;BMPs/Em.bmp;BMPs/Ao.bmp;BMPs/Ec.bmp;BMPs/Fh.bmp;BMPs/On.bmp;BMPs/Ue.bmp;BMPs/Eo.bmp;E;O;580.0;1.0;36.0;;;;80;50
38;Hierarchical-CB-8-CIRCLE_v5;1;1;22;"<?xml version=""1.0""?>\n<Clock xmlns:dt=""urn:schemas-microsoft-com:datatypes""><Description dt:dt=""string"">E-Prime Primary Realtime Clock</Description><StartTime><Timestamp dt:dt=""int"">0</Timestamp><DateUtc dt:dt=""string"">2017-05-14T13:58:50Z</DateUtc></StartTime><FrequencyChanges><FrequencyChange><Frequency dt:dt=""r8"">10000000</Frequency><Timestamp dt:dt=""r8"">21712191420</Timestamp><Current dt:dt=""r8"">0</Current><DateUtc dt:dt=""string"">2017-05-14T13:58:50Z</DateUtc></FrequencyChange></FrequencyChanges></Clock>\n";0.0;1;diestro;cris;239250258;05-14-2017;15:58:50;mujer;2;1.0;1.0;1.0;;;;experimental;blockproc;blocklist;37;1;0;2;630819;3;3;G;H;E;0;;0;7;625622;{SPACE};4692;630314;trialproc;3;0;;-999999;11;630831;1;360;631191;triallist;BMPs/Zm.bmp;BMPs/Af.bmp;BMPs/He.bmp;BMPs/Ek.bmp;BMPs/Hm.bmp;BMPs/Ku.bmp;BMPs/Fz.bmp;BMPs/Uz.bmp;BMPs/Me.bmp;M;E;857.0;1.0;37.0;;;;80;50
39;Hierarchical-CB-8-CIRCLE_v5;1;1;22;"<?xml version=""1.0""?>\n<Clock xmlns:dt=""urn:schemas-microsoft-com:datatypes""><Description dt:dt=""string"">E-Prime Primary Realtime Clock</Description><StartTime><Timestamp dt:dt=""int"">0</Timestamp><DateUtc dt:dt=""string"">2017-05-14T13:58:50Z</DateUtc></StartTime><FrequencyChanges><FrequencyChange><Frequency dt:dt=""r8"">10000000</Frequency><Timestamp dt:dt=""r8"">21712191420</Timestamp><Current dt:dt=""r8"">0</Current><DateUtc dt:dt=""string"">2017-05-14T13:58:50Z</DateUtc></FrequencyChange></FrequencyChanges></Clock>\n";0.0;1;diestro;cris;239250258;05-14-2017;15:58:50;mujer;2;1.0;1.0;1.0;;;;experimental;blockproc;blocklist;38;1;0;2;637606;1;1;G;H;N;0;;0;6;634130;{SPACE};2972;637102;trialproc;1;0;;-999999;13;637620;1;1949;639569;triallist;BMPs/Hn.bmp;BMPs/Nh.bmp;BMPs/Uh.bmp;BMPs/Ku.bmp;BMPs/Ko.bmp;BMPs/Nf.bmp;BMPs/An.bmp;BMPs/Ac.bmp;BMPs/Zn.bmp;Z;N;406.0;1.0;38.0;;;;50;15
40;Hierarchical-CB-8-CIRCLE_v5;1;1;22;"<?xml version=""1.0""?>\n<Clock xmlns:dt=""urn:schemas-microsoft-com:datatypes""><Description dt:dt=""string"">E-Prime Primary Realtime Clock</Description><StartTime><Timestamp dt:dt=""int"">0</Timestamp><DateUtc dt:dt=""string"">2017-05-14T13:58:50Z</DateUtc></StartTime><FrequencyChanges><FrequencyChange><Frequency dt:dt=""r8"">10000000</Frequency><Timestamp dt:dt=""r8"">21712191420</Timestamp><Current dt:dt=""r8"">0</Current><DateUtc dt:dt=""string"">2017-05-14T13:58:50Z</DateUtc></FrequencyChange></FrequencyChanges></Clock>\n";0.0;1;diestro;cris;239250258;05-14-2017;15:58:50;mujer;2;1.0;1.0;1.0;;;;experimental;blockproc;blocklist;39;1;0;2;654584;8;8;L;M;C;0;;0;7;642476;{SPACE};11604;654080;trialproc;8;0;;-999999;10;654595;1;1021;655616;triallist;BMPs/Ec.bmp;BMPs/Zk.bmp;BMPs/Uc.bmp;BMPs/Ka.bmp;BMPs/An.bmp;BMPs/Mf.bmp;BMPs/Oc.bmp;BMPs/Mc.bmp;BMPs/Mn.bmp;M;N;635.0;1.0;39.0;;;;29;27
41;Hierarchical-CB-8-CIRCLE_v5;1;1;22;"<?xml version=""1.0""?>\n<Clock xmlns:dt=""urn:schemas-microsoft-com:datatypes""><Description dt:dt=""string"">E-Prime Primary Realtime Clock</Description><StartTime><Timestamp dt:dt=""int"">0</Timestamp><DateUtc dt:dt=""string"">2017-05-14T13:58:50Z</DateUtc></StartTime><FrequencyChanges><FrequencyChange><Frequency dt:dt=""r8"">10000000</Frequency><Timestamp dt:dt=""r8"">21712191420</Timestamp><Current dt:dt=""r8"">0</Current><DateUtc dt:dt=""string"">2017-05-14T13:58:50Z</DateUtc></FrequencyChange></FrequencyChanges></Clock>\n";0.0;1;diestro;cris;239250258;05-14-2017;15:58:50;mujer;2;1.0;1.0;1.0;;;;experimental;blockproc;blocklist;40;1;0;2;667100;5;5;G;U;N;0;;0;6;659088;{SPACE};7508;666596;trialproc;5;0;;-999999;7;667108;1;1323;668431;triallist;BMPs/Zm.bmp;BMPs/Za.bmp;BMPs/Zh.bmp;BMPs/Zk.bmp;BMPs/Un.bmp;BMPs/Ze.bmp;BMPs/Mh.bmp;BMPs/Ua.bmp;BMPs/Hn.bmp;H;N;964.0;1.0;40.0;;;;50;85
42;Hierarchical-CB-8-CIRCLE_v5;1;1;22;"<?xml version=""1.0""?>\n<Clock xmlns:dt=""urn:schemas-microsoft-com:datatypes""><Description dt:dt=""string"">E-Prime Primary Realtime Clock</Description><StartTime><Timestamp dt:dt=""int"">0</Timestamp><DateUtc dt:dt=""string"">2017-05-14T13:58:50Z</DateUtc></StartTime><FrequencyChanges><FrequencyChange><Frequency dt:dt=""r8"">10000000</Frequency><Timestamp dt:dt=""r8"">21712191420</Timestamp><Current dt:dt=""r8"">0</Current><DateUtc dt:dt=""string"">2017-05-14T13:58:50Z</DateUtc></FrequencyChange></FrequencyChanges></Clock>\n";0.0;1;diestro;cris;239250258;05-14-2017;15:58:50;mujer;2;1.0;1.0;1.0;;;;experimental;blockproc;blocklist;41;1;0;2;676111;2;2;GL;Z;F;0;;0;6;671310;{SPACE};4297;675607;trialproc;2;0;;-999999;8;676120;1;986;677106;triallist;BMPs/Hn.bmp;BMPs/Zf.bmp;BMPs/Of.bmp;BMPs/Ca.bmp;BMPs/Kn.bmp;BMPs/Eh.bmp;BMPs/Eu.bmp;BMPs/Zc.bmp;BMPs/Mn.bmp;M;N;50.0;1.0;41.0;;;;71;28
43;Hierarchical-CB-8-CIRCLE_v5;1;1;22;"<?xml version=""1.0""?>\n<Clock xmlns:dt=""urn:schemas-microsoft-com:datatypes""><Description dt:dt=""string"">E-Prime Primary Realtime Clock</Description><StartTime><Timestamp dt:dt=""int"">0</Timestamp><DateUtc dt:dt=""string"">2017-05-14T13:58:50Z</DateUtc></StartTime><FrequencyChanges><FrequencyChange><Frequency dt:dt=""r8"">10000000</Frequency><Timestamp dt:dt=""r8"">21712191420</Timestamp><Current dt:dt=""r8"">0</Current><DateUtc dt:dt=""string"">2017-05-14T13:58:50Z</DateUtc></FrequencyChange></FrequencyChanges></Clock>\n";0.0;1;diestro;cris;239250258;05-14-2017;15:58:50;mujer;2;1.0;1.0;1.0;;;;experimental;blockproc;blocklist;42;1;0;2;689324;4;4;G;N;Z;0;;0;7;680218;{SPACE};8602;688820;trialproc;4;0;;-999999;7;689332;1;995;690327;triallist;BMPs/Um.bmp;BMPs/Zf.bmp;BMPs/Fe.bmp;BMPs/Nz.bmp;BMPs/Hz.bmp;BMPs/Ea.bmp;BMPs/He.bmp;BMPs/Zc.bmp;BMPs/Ez.bmp;E;Z;784.0;1.0;42.0;;;;71;73
44;Hierarchical-CB-8-CIRCLE_v5;1;1;22;"<?xml version=""1.0""?>\n<Clock xmlns:dt=""urn:schemas-microsoft-com:datatypes""><Description dt:dt=""string"">E-Prime Primary Realtime Clock</Description><StartTime><Timestamp dt:dt=""int"">0</Timestamp><DateUtc dt:dt=""string"">2017-05-14T13:58:50Z</DateUtc></StartTime><FrequencyChanges><FrequencyChange><Frequency dt:dt=""r8"">10000000</Frequency><Timestamp dt:dt=""r8"">21712191420</Timestamp><Current dt:dt=""r8"">0</Current><DateUtc dt:dt=""string"">2017-05-14T13:58:50Z</DateUtc></FrequencyChange></FrequencyChanges></Clock>\n";0.0;1;diestro;cris;239250258;05-14-2017;15:58:50;mujer;2;1.0;1.0;1.0;;;;experimental;blockproc;blocklist;43;1;0;2;697087;1;1;G;F;K;0;;0;7;693223;{SPACE};3361;696584;trialproc;1;0;;-999999;7;697095;1;1390;698485;triallist;BMPs/Fk.bmp;BMPs/Ha.bmp;BMPs/Ch.bmp;BMPs/Ne.bmp;BMPs/Em.bmp;BMPs/Uf.bmp;BMPs/Ec.bmp;BMPs/Oe.bmp;BMPs/Ak.bmp;A;K;500.0;1.0;43.0;;;;50;15
45;Hierarchical-CB-8-CIRCLE_v5;1;1;22;"<?xml version=""1.0""?>\n<Clock xmlns:dt=""urn:schemas-microsoft-com:datatypes""><Description dt:dt=""string"">E-Prime Primary Realtime Clock</Description><StartTime><Timestamp dt:dt=""int"">0</Timestamp><DateUtc dt:dt=""string"">2017-05-14T13:58:50Z</DateUtc></StartTime><FrequencyChanges><FrequencyChange><Frequency dt:dt=""r8"">10000000</Frequency><Timestamp dt:dt=""r8"">21712191420</Timestamp><Current dt:dt=""r8"">0</Current><DateUtc dt:dt=""string"">2017-05-14T13:58:50Z</DateUtc></FrequencyChange></FrequencyChanges></Clock>\n";0.0;1;diestro;cris;239250258;05-14-2017;15:58:50;mujer;2;1.0;1.0;1.0;;;;experimental;blockproc;blocklist;44;1;1;2;704345;1;1;GL;E;F;0;;0;6;701694;{SPACE};2147;703841;trialproc;1;0;;-999999;11;704357;1;406;704763;triallist;BMPs/Ef.bmp;BMPs/Ou.bmp;BMPs/Zn.bmp;BMPs/Hz.bmp;BMPs/Uk.bmp;BMPs/Hm.bmp;BMPs/Ck.bmp;BMPs/Eo.bmp;BMPs/Kn.bmp;K;N;9.0;1.0;44.0;;;;50;15
46;Hierarchical-CB-8-CIRCLE_v5;1;1;22;"<?xml version=""1.0""?>\n<Clock xmlns:dt=""urn:schemas-microsoft-com:datatypes""><Description dt:dt=""string"">E-Prime Primary Realtime Clock</Description><StartTime><Timestamp dt:dt=""int"">0</Timestamp><DateUtc dt:dt=""string"">2017-05-14T13:58:50Z</DateUtc></StartTime><FrequencyChanges><FrequencyChange><Frequency dt:dt=""r8"">10000000</Frequency><Timestamp dt:dt=""r8"">21712191420</Timestamp><Current dt:dt=""r8"">0</Current><DateUtc dt:dt=""string"">2017-05-14T13:58:50Z</DateUtc></FrequencyChange></FrequencyChanges></Clock>\n";0.0;1;diestro;cris;239250258;05-14-2017;15:58:50;mujer;2;1.0;1.0;1.0;;;;experimental;blockproc;blocklist;45;1;0;2;716823;3;3;G;Z;K;0;;0;6;707629;{SPACE};8690;716319;trialproc;3;0;;-999999;7;716831;1;1230;718061;triallist;BMPs/Hm.bmp;BMPs/Ku.bmp;BMPs/Zk.bmp;BMPs/Nk.bmp;BMPs/Km.bmp;BMPs/Cm.bmp;BMPs/Nz.bmp;BMPs/Fh.bmp;BMPs/Mk.bmp;M;K;633.0;1.0;45.0;;;;80;50
47;Hierarchical-CB-8-CIRCLE_v5;1;1;22;"<?xml version=""1.0""?>\n<Clock xmlns:dt=""urn:schemas-microsoft-com:datatypes""><Description dt:dt=""string"">E-Prime Primary Realtime Clock</Description><StartTime><Timestamp dt:dt=""int"">0</Timestamp><DateUtc dt:dt=""string"">2017-05-14T13:58:50Z</DateUtc></StartTime><FrequencyChanges><FrequencyChange><Frequency dt:dt=""r8"">10000000</Frequency><Timestamp dt:dt=""r8"">21712191420</Timestamp><Current dt:dt=""r8"">0</Current><DateUtc dt:dt=""string"">2017-05-14T13:58:50Z</DateUtc></FrequencyChange></FrequencyChanges></Clock>\n";0.0;1;diestro;cris;239250258;05-14-2017;15:58:50;mujer;2;1.0;1.0;1.0;;;;experimental;blockproc;blocklist;46;1;0;2;729028;4;4;GL;Z;F;0;;0;6;721041;{SPACE};7483;728524;trialproc;4;0;;-999999;7;729036;1;849;729885;triallist;BMPs/Ez.bmp;BMPs/Ho.bmp;BMPs/Uf.bmp;BMPs/Zf.bmp;BMPs/Ne.bmp;BMPs/Nu.bmp;BMPs/Ea.bmp;BMPs/Ue.bmp;BMPs/Hu.bmp;H;U;159.0;1.0;46.0;;;;71;73
48;Hierarchical-CB-8-CIRCLE_v5;1;1;22;"<?xml version=""1.0""?>\n<Clock xmlns:dt=""urn:schemas-microsoft-com:datatypes""><Description dt:dt=""string"">E-Prime Primary Realtime Clock</Description><StartTime><Timestamp dt:dt=""int"">0</Timestamp><DateUtc dt:dt=""string"">2017-05-14T13:58:50Z</DateUtc></StartTime><FrequencyChanges><FrequencyChange><Frequency dt:dt=""r8"">10000000</Frequency><Timestamp dt:dt=""r8"">21712191420</Timestamp><Current dt:dt=""r8"">0</Current><DateUtc dt:dt=""string"">2017-05-14T13:58:50Z</DateUtc></FrequencyChange></FrequencyChanges></Clock>\n";0.0;1;diestro;cris;239250258;05-14-2017;15:58:50;mujer;2;1.0;1.0;1.0;;;;experimental;blockproc;blocklist;47;1;0;2;737860;5;5;L;N;H;0;;0;6;733066;{SPACE};4290;737356;trialproc;5;0;;-999999;8;737869;1;747;738616;triallist;BMPs/Ak.bmp;BMPs/Hu.bmp;BMPs/Am.bmp;BMPs/Oe.bmp;BMPs/Nh.bmp;BMPs/Ze.bmp;BMPs/Ek.bmp;BMPs/Cm.bmp;BMPs/Nc.bmp;N;C;548.0;1.0;47.0;;;;50;85
49;Hierarchical-CB-8-CIRCLE_v5;1;1;22;"<?xml version=""1.0""?>\n<Clock xmlns:dt=""urn:schemas-microsoft-com:datatypes""><Description dt:dt=""string"">E-Prime Primary Realtime Clock</Description><StartTime><Timestamp dt:dt=""int"">0</Timestamp><DateUtc dt:dt=""string"">2017-05-14T13:58:50Z</DateUtc></StartTime><FrequencyChanges><FrequencyChange><Frequency dt:dt=""r8"">10000000</Frequency><Timestamp dt:dt=""r8"">21712191420</Timestamp><Current dt:dt=""r8"">0</Current><DateUtc dt:dt=""string"">2017-05-14T13:58:50Z</DateUtc></FrequencyChange></FrequencyChanges></Clock>\n";0.0;1;diestro;cris;239250258;05-14-2017;15:58:50;mujer;2;1.0;1.0;1.0;;;;experimental;blockproc;blocklist;48;1;1;2;749493;3;3;G;C;Z;0;;0;6;741683;{SPACE};7306;748989;trialproc;3;0;;-999999;9;749503;1;936;750439;triallist;BMPs/Ac.bmp;BMPs/Na.bmp;BMPs/Cz.bmp;BMPs/Nk.bmp;BMPs/Me.bmp;BMPs/Fn.bmp;BMPs/Zc.bmp;BMPs/Mk.bmp;BMPs/Mz.bmp;M;Z;547.0;1.0;48.0;;;;80;50
50;Hierarchical-CB-8-CIRCLE_v5;1;1;22;"<?xml version=""1.0""?>\n<Clock xmlns:dt=""urn:schemas-microsoft-com:datatypes""><Description dt:dt=""string"">E-Prime Primary Realtime Clock</Description><StartTime><Timestamp dt:dt=""int"">0</Timestamp><DateUtc dt:dt=""string"">2017-05-14T13:58:50Z</DateUtc></StartTime><FrequencyChanges><FrequencyChange><Frequency dt:dt=""r8"">10000000</Frequency><Timestamp dt:dt=""r8"">21712191420</Timestamp><Current dt:dt=""r8"">0</Current><DateUtc dt:dt=""string"">2017-05-14T13:58:50Z</DateUtc></FrequencyChange></FrequencyChanges></Clock>\n";0.0;1;diestro;cris;239250258;05-14-2017;15:58:50;mujer;2;1.0;1.0;1.0;;;;experimental;blockproc;blocklist;49;1;0;2;756879;4;4;GL;M;E;0;;0;6;753382;{SPACE};2994;756376;trialproc;4;0;;-999999;9;756889;1;806;757695;triallist;BMPs/Nc.bmp;BMPs/Mz.bmp;BMPs/No.bmp;BMPs/Me.bmp;BMPs/Ua.bmp;BMPs/Nf.bmp;BMPs/Ao.bmp;BMPs/Oc.bmp;BMPs/Oh.bmp;O;H;300.0;1.0;49.0;;;;71;73
51;Hierarchical-CB-8-CIRCLE_v5;1;1;22;"<?xml version=""1.0""?>\n<Clock xmlns:dt=""urn:schemas-microsoft-com:datatypes""><Description dt:dt=""string"">E-Prime Primary Realtime Clock</Description><StartTime><Timestamp dt:dt=""int"">0</Timestamp><DateUtc dt:dt=""string"">2017-05-14T13:58:50Z</DateUtc></StartTime><FrequencyChanges><FrequencyChange><Frequency dt:dt=""r8"">10000000</Frequency><Timestamp dt:dt=""r8"">21712191420</Timestamp><Current dt:dt=""r8"">0</Current><DateUtc dt:dt=""string"">2017-05-14T13:58:50Z</DateUtc></FrequencyChange></FrequencyChanges></Clock>\n";0.0;1;diestro;cris;239250258;05-14-2017;15:58:50;mujer;2;1.0;1.0;1.0;;;;experimental;blockproc;blocklist;50;1;0;2;769797;1;1;L;K;H;0;;0;6;760789;{SPACE};8504;769293;trialproc;1;0;;-999999;8;769806;1;1364;771170;triallist;BMPs/Kh.bmp;BMPs/Fz.bmp;BMPs/Na.bmp;BMPs/Um.bmp;BMPs/Oc.bmp;BMPs/Mk.bmp;BMPs/Kf.bmp;BMPs/Hf.bmp;BMPs/Km.bmp;K;M;925.0;1.0;50.0;;;;50;15
52;Hierarchical-CB-8-CIRCLE_v5;1;1;22;"<?xml version=""1.0""?>\n<Clock xmlns:dt=""urn:schemas-microsoft-com:datatypes""><Description dt:dt=""string"">E-Prime Primary Realtime Clock</Description><StartTime><Timestamp dt:dt=""int"">0</Timestamp><DateUtc dt:dt=""string"">2017-05-14T13:58:50Z</DateUtc></StartTime><FrequencyChanges><FrequencyChange><Frequency dt:dt=""r8"">10000000</Frequency><Timestamp dt:dt=""r8"">21712191420</Timestamp><Current dt:dt=""r8"">0</Current><DateUtc dt:dt=""string"">2017-05-14T13:58:50Z</DateUtc></FrequencyChange></FrequencyChanges></Clock>\n";0.0;1;diestro;cris;239250258;05-14-2017;15:58:50;mujer;2;1.0;1.0;1.0;;;;experimental;blockproc;blocklist;51;1;1;2;784531;7;7;GL;K;O;0;;0;7;774086;{SPACE};9941;784027;trialproc;7;0;;-999999;10;784542;1;800;785342;triallist;BMPs/Ku.bmp;BMPs/Za.bmp;BMPs/Fh.bmp;BMPs/Oc.bmp;BMPs/Uk.bmp;BMPs/Zn.bmp;BMPs/Ko.bmp;BMPs/Fz.bmp;BMPs/Fk.bmp;F;K;138.0;1.0;51.0;;;;20;50
53;Hierarchical-CB-8-CIRCLE_v5;1;1;22;"<?xml version=""1.0""?>\n<Clock xmlns:dt=""urn:schemas-microsoft-com:datatypes""><Description dt:dt=""string"">E-Prime Primary Realtime Clock</Description><StartTime><Timestamp dt:dt=""int"">0</Timestamp><DateUtc dt:dt=""string"">2017-05-14T13:58:50Z</DateUtc></StartTime><FrequencyChanges><FrequencyChange><Frequency dt:dt=""r8"">10000000</Frequency><Timestamp dt:dt=""r8"">21712191420</Timestamp><Current dt:dt=""r8"">0</Current><DateUtc dt:dt=""string"">2017-05-14T13:58:50Z</DateUtc></FrequencyChange></FrequencyChanges></Clock>\n";0.0;1;diestro;cris;239250258;05-14-2017;15:58:50;mujer;2;1.0;1.0;1.0;;;;experimental;blockproc;blocklist;52;1;0;2;794603;3;3;GL;C;H;0;;0;6;788344;{SPACE};5755;794099;trialproc;3;0;;-999999;11;794615;1;1050;795665;triallist;BMPs/Ka.bmp;BMPs/Au.bmp;BMPs/Ch.bmp;BMPs/Fh.bmp;BMPs/Fe.bmp;BMPs/Nz.bmp;BMPs/Mz.bmp;BMPs/Mh.bmp;BMPs/Eo.bmp;E;O;45.0;1.0;52.0;;;;80;50
54;Hierarchical-CB-8-CIRCLE_v5;1;1;22;"<?xml version=""1.0""?>\n<Clock xmlns:dt=""urn:schemas-microsoft-com:datatypes""><Description dt:dt=""string"">E-Prime Primary Realtime Clock</Description><StartTime><Timestamp dt:dt=""int"">0</Timestamp><DateUtc dt:dt=""string"">2017-05-14T13:58:50Z</DateUtc></StartTime><FrequencyChanges><FrequencyChange><Frequency dt:dt=""r8"">10000000</Frequency><Timestamp dt:dt=""r8"">21712191420</Timestamp><Current dt:dt=""r8"">0</Current><DateUtc dt:dt=""string"">2017-05-14T13:58:50Z</DateUtc></FrequencyChange></FrequencyChanges></Clock>\n";0.0;1;diestro;cris;239250258;05-14-2017;15:58:50;mujer;2;1.0;1.0;1.0;;;;experimental;blockproc;blocklist;53;1;0;2;813222;2;2;L;A;M;0;;0;6;798588;{SPACE};14129;812717;trialproc;2;0;;-999999;12;813235;1;763;813998;triallist;BMPs/Kc.bmp;BMPs/Am.bmp;BMPs/Oe.bmp;BMPs/Oh.bmp;BMPs/Fn.bmp;BMPs/Ak.bmp;BMPs/Ek.bmp;BMPs/Ze.bmp;BMPs/Au.bmp;A;U;858.0;1.0;53.0;;;;71;28
55;Hierarchical-CB-8-CIRCLE_v5;1;1;22;"<?xml version=""1.0""?>\n<Clock xmlns:dt=""urn:schemas-microsoft-com:datatypes""><Description dt:dt=""string"">E-Prime Primary Realtime Clock</Description><StartTime><Timestamp dt:dt=""int"">0</Timestamp><DateUtc dt:dt=""string"">2017-05-14T13:58:50Z</DateUtc></StartTime><FrequencyChanges><FrequencyChange><Frequency dt:dt=""r8"">10000000</Frequency><Timestamp dt:dt=""r8"">21712191420</Timestamp><Current dt:dt=""r8"">0</Current><DateUtc dt:dt=""string"">2017-05-14T13:58:50Z</DateUtc></FrequencyChange></FrequencyChanges></Clock>\n";0.0;1;diestro;cris;239250258;05-14-2017;15:58:50;mujer;2;1.0;1.0;1.0;;;;experimental;blockproc;blocklist;54;1;0;2;846976;6;6;L;A;C;0;;0;7;819240;{SPACE};27231;846471;trialproc;6;0;;-999999;7;846984;1;2247;849231;triallist;BMPs/Me.bmp;BMPs/Ck.bmp;BMPs/Zm.bmp;BMPs/Zf.bmp;BMPs/Eu.bmp;BMPs/Ac.bmp;BMPs/Ne.bmp;BMPs/Mo.bmp;BMPs/Au.bmp;A;U;939.0;1.0;54.0;;;;29;73
56;Hierarchical-CB-8-CIRCLE_v5;1;1;22;"<?xml version=""1.0""?>\n<Clock xmlns:dt=""urn:schemas-microsoft-com:datatypes""><Description dt:dt=""string"">E-Prime Primary Realtime Clock</Description><StartTime><Timestamp dt:dt=""int"">0</Timestamp><DateUtc dt:dt=""string"">2017-05-14T13:58:50Z</DateUtc></StartTime><FrequencyChanges><FrequencyChange><Frequency dt:dt=""r8"">10000000</Frequency><Timestamp dt:dt=""r8"">21712191420</Timestamp><Current dt:dt=""r8"">0</Current><DateUtc dt:dt=""string"">2017-05-14T13:58:50Z</DateUtc></FrequencyChange></FrequencyChanges></Clock>\n";0.0;1;diestro;cris;239250258;05-14-2017;15:58:50;mujer;2;1.0;1.0;1.0;;;;experimental;blockproc;blocklist;55;1;0;2;857881;5;5;L;A;K;0;;0;6;852405;{SPACE};4972;857377;trialproc;5;0;;-999999;12;857894;1;593;858487;triallist;BMPs/Zf.bmp;BMPs/Ea.bmp;BMPs/Kh.bmp;BMPs/Am.bmp;BMPs/Ak.bmp;BMPs/Nm.bmp;BMPs/Ah.bmp;BMPs/Hf.bmp;BMPs/Ao.bmp;A;O;867.0;1.0;55.0;;;;50;85
57;Hierarchical-CB-8-CIRCLE_v5;1;1;22;"<?xml version=""1.0""?>\n<Clock xmlns:dt=""urn:schemas-microsoft-com:datatypes""><Description dt:dt=""string"">E-Prime Primary Realtime Clock</Description><StartTime><Timestamp dt:dt=""int"">0</Timestamp><DateUtc dt:dt=""string"">2017-05-14T13:58:50Z</DateUtc></StartTime><FrequencyChanges><FrequencyChange><Frequency dt:dt=""r8"">10000000</Frequency><Timestamp dt:dt=""r8"">21712191420</Timestamp><Current dt:dt=""r8"">0</Current><DateUtc dt:dt=""string"">2017-05-14T13:58:50Z</DateUtc></FrequencyChange></FrequencyChanges></Clock>\n";0.0;1;diestro;cris;239250258;05-14-2017;15:58:50;mujer;2;1.0;1.0;1.0;;;;experimental;blockproc;blocklist;56;1;0;2;872662;6;6;G;E;Z;0;;0;7;861830;{SPACE};10328;872158;trialproc;6;0;;-999999;11;872674;1;974;873648;triallist;BMPs/Uh.bmp;BMPs/Oe.bmp;BMPs/Fu.bmp;BMPs/Kc.bmp;BMPs/Fe.bmp;BMPs/Ez.bmp;BMPs/Un.bmp;BMPs/Em.bmp;BMPs/Cz.bmp;C;Z;738.0;1.0;56.0;;;;29;73
58;Hierarchical-CB-8-CIRCLE_v5;1;1;22;"<?xml version=""1.0""?>\n<Clock xmlns:dt=""urn:schemas-microsoft-com:datatypes""><Description dt:dt=""string"">E-Prime Primary Realtime Clock</Description><StartTime><Timestamp dt:dt=""int"">0</Timestamp><DateUtc dt:dt=""string"">2017-05-14T13:58:50Z</DateUtc></StartTime><FrequencyChanges><FrequencyChange><Frequency dt:dt=""r8"">10000000</Frequency><Timestamp dt:dt=""r8"">21712191420</Timestamp><Current dt:dt=""r8"">0</Current><DateUtc dt:dt=""string"">2017-05-14T13:58:50Z</DateUtc></FrequencyChange></FrequencyChanges></Clock>\n";0.0;1;diestro;cris;239250258;05-14-2017;15:58:50;mujer;2;1.0;1.0;1.0;;;;experimental;blockproc;blocklist;57;1;1;2;881110;1;1;L;H;O;0;;0;6;877119;{SPACE};3487;880606;trialproc;1;0;;-999999;9;881120;1;966;882086;triallist;BMPs/Ho.bmp;BMPs/No.bmp;BMPs/Oa.bmp;BMPs/Ua.bmp;BMPs/Cu.bmp;BMPs/Em.bmp;BMPs/Cz.bmp;BMPs/On.bmp;BMPs/Hk.bmp;H;K;986.0;1.0;57.0;;;;50;15
59;Hierarchical-CB-8-CIRCLE_v5;1;1;22;"<?xml version=""1.0""?>\n<Clock xmlns:dt=""urn:schemas-microsoft-com:datatypes""><Description dt:dt=""string"">E-Prime Primary Realtime Clock</Description><StartTime><Timestamp dt:dt=""int"">0</Timestamp><DateUtc dt:dt=""string"">2017-05-14T13:58:50Z</DateUtc></StartTime><FrequencyChanges><FrequencyChange><Frequency dt:dt=""r8"">10000000</Frequency><Timestamp dt:dt=""r8"">21712191420</Timestamp><Current dt:dt=""r8"">0</Current><DateUtc dt:dt=""string"">2017-05-14T13:58:50Z</DateUtc></FrequencyChange></FrequencyChanges></Clock>\n";0.0;1;diestro;cris;239250258;05-14-2017;15:58:50;mujer;2;1.0;1.0;1.0;;;;experimental;blockproc;blocklist;58;1;0;2;888856;8;8;GL;Z;M;0;;0;6;884965;{SPACE};3387;888352;trialproc;8;0;;-999999;9;888866;1;832;889698;triallist;BMPs/Ck.bmp;BMPs/Na.bmp;BMPs/Eh.bmp;BMPs/Ch.bmp;BMPs/Uh.bmp;BMPs/Mf.bmp;BMPs/Ec.bmp;BMPs/Zm.bmp;BMPs/Ce.bmp;C;E;133.0;1.0;58.0;;;;29;27
60;Hierarchical-CB-8-CIRCLE_v5;1;1;22;"<?xml version=""1.0""?>\n<Clock xmlns:dt=""urn:schemas-microsoft-com:datatypes""><Description dt:dt=""string"">E-Prime Primary Realtime Clock</Description><StartTime><Timestamp dt:dt=""int"">0</Timestamp><DateUtc dt:dt=""string"">2017-05-14T13:58:50Z</DateUtc></StartTime><FrequencyChanges><FrequencyChange><Frequency dt:dt=""r8"">10000000</Frequency><Timestamp dt:dt=""r8"">21712191420</Timestamp><Current dt:dt=""r8"">0</Current><DateUtc dt:dt=""string"">2017-05-14T13:58:50Z</DateUtc></FrequencyChange></FrequencyChanges></Clock>\n";0.0;1;diestro;cris;239250258;05-14-2017;15:58:50;mujer;2;1.0;1.0;1.0;;;;experimental;blockproc;blocklist;59;1;0;2;901746;4;4;G;H;M;0;;0;6;892627;{SPACE};8615;901242;trialproc;4;0;;-999999;8;901755;1;1124;902879;triallist;BMPs/Kz.bmp;BMPs/Ue.bmp;BMPs/Of.bmp;BMPs/Hm.bmp;BMPs/Uc.bmp;BMPs/Ac.bmp;BMPs/Em.bmp;BMPs/Fa.bmp;BMPs/Cm.bmp;C;M;725.0;1.0;59.0;;;;71;73
61;Hierarchical-CB-8-CIRCLE_v5;1;1;22;"<?xml version=""1.0""?>\n<Clock xmlns:dt=""urn:schemas-microsoft-com:datatypes""><Description dt:dt=""string"">E-Prime Primary Realtime Clock</Description><StartTime><Timestamp dt:dt=""int"">0</Timestamp><DateUtc dt:dt=""string"">2017-05-14T13:58:50Z</DateUtc></StartTime><FrequencyChanges><FrequencyChange><Frequency dt:dt=""r8"">10000000</Frequency><Timestamp dt:dt=""r8"">21712191420</Timestamp><Current dt:dt=""r8"">0</Current><DateUtc dt:dt=""string"">2017-05-14T13:58:50Z</DateUtc></FrequencyChange></FrequencyChanges></Clock>\n";0.0;1;diestro;cris;239250258;05-14-2017;15:58:50;mujer;2;1.0;1.0;1.0;;;;experimental;blockproc;blocklist;60;1;0;2;918365;5;5;L;O;H;0;;0;7;906254;{SPACE};11606;917860;trialproc;5;0;;-999999;7;918373;1;1002;919375;triallist;BMPs/Ao.bmp;BMPs/Oc.bmp;BMPs/Hz.bmp;BMPs/Nu.bmp;BMPs/Oh.bmp;BMPs/Ou.bmp;BMPs/Zf.bmp;BMPs/Fk.bmp;BMPs/Oz.bmp;O;Z;485.0;1.0;60.0;;;;50;85
62;Hierarchical-CB-8-CIRCLE_v5;1;1;22;"<?xml version=""1.0""?>\n<Clock xmlns:dt=""urn:schemas-microsoft-com:datatypes""><Description dt:dt=""string"">E-Prime Primary Realtime Clock</Description><StartTime><Timestamp dt:dt=""int"">0</Timestamp><DateUtc dt:dt=""string"">2017-05-14T13:58:50Z</DateUtc></StartTime><FrequencyChanges><FrequencyChange><Frequency dt:dt=""r8"">10000000</Frequency><Timestamp dt:dt=""r8"">21712191420</Timestamp><Current dt:dt=""r8"">0</Current><DateUtc dt:dt=""string"">2017-05-14T13:58:50Z</DateUtc></FrequencyChange></FrequencyChanges></Clock>\n";0.0;1;diestro;cris;239250258;05-14-2017;15:58:50;mujer;2;1.0;1.0;1.0;;;;experimental;blockproc;blocklist;61;1;0;2;926839;6;6;G;K;C;0;;0;6;922318;{SPACE};4013;926331;trialproc;6;0;;-999999;8;926848;1;901;927749;triallist;BMPs/Na.bmp;BMPs/Zf.bmp;BMPs/Fn.bmp;BMPs/Fu.bmp;BMPs/Hn.bmp;BMPs/Kc.bmp;BMPs/Em.bmp;BMPs/Oz.bmp;BMPs/Zc.bmp;Z;C;442.0;1.0;61.0;;;;29;73
63;Hierarchical-CB-8-CIRCLE_v5;1;1;22;"<?xml version=""1.0""?>\n<Clock xmlns:dt=""urn:schemas-microsoft-com:datatypes""><Description dt:dt=""string"">E-Prime Primary Realtime Clock</Description><StartTime><Timestamp dt:dt=""int"">0</Timestamp><DateUtc dt:dt=""string"">2017-05-14T13:58:50Z</DateUtc></StartTime><FrequencyChanges><FrequencyChange><Frequency dt:dt=""r8"">10000000</Frequency><Timestamp dt:dt=""r8"">21712191420</Timestamp><Current dt:dt=""r8"">0</Current><DateUtc dt:dt=""string"">2017-05-14T13:58:50Z</DateUtc></FrequencyChange></FrequencyChanges></Clock>\n";0.0;1;diestro;cris;239250258;05-14-2017;15:58:50;mujer;2;1.0;1.0;1.0;;;;experimental;blockproc;blocklist;62;1;0;2;939942;8;8;G;A;E;0;;0;7;931066;{SPACE};8372;939438;trialproc;8;0;;-999999;9;939952;1;991;940943;triallist;BMPs/Oe.bmp;BMPs/Zu.bmp;BMPs/Ne.bmp;BMPs/Hu.bmp;BMPs/Mh.bmp;BMPs/Ko.bmp;BMPs/Ho.bmp;BMPs/Ae.bmp;BMPs/Fe.bmp;F;E;467.0;1.0;62.0;;;;29;27
64;Hierarchical-CB-8-CIRCLE_v5;1;1;22;"<?xml version=""1.0""?>\n<Clock xmlns:dt=""urn:schemas-microsoft-com:datatypes""><Description dt:dt=""string"">E-Prime Primary Realtime Clock</Description><StartTime><Timestamp dt:dt=""int"">0</Timestamp><DateUtc dt:dt=""string"">2017-05-14T13:58:50Z</DateUtc></StartTime><FrequencyChanges><FrequencyChange><Frequency dt:dt=""r8"">10000000</Frequency><Timestamp dt:dt=""r8"">21712191420</Timestamp><Current dt:dt=""r8"">0</Current><DateUtc dt:dt=""string"">2017-05-14T13:58:50Z</DateUtc></FrequencyChange></FrequencyChanges></Clock>\n";0.0;1;diestro;cris;239250258;05-14-2017;15:58:50;mujer;2;1.0;1.0;1.0;;;;experimental;blockproc;blocklist;63;1;0;2;952185;4;4;GL;O;F;0;;0;6;944221;{SPACE};7460;951681;trialproc;4;0;;-999999;8;952194;1;1078;953272;triallist;BMPs/Fu.bmp;BMPs/Fe.bmp;BMPs/Kc.bmp;BMPs/Of.bmp;BMPs/Ak.bmp;BMPs/Nc.bmp;BMPs/Mz.bmp;BMPs/He.bmp;BMPs/Em.bmp;E;M;386.0;1.0;63.0;;;;71;73
65;Hierarchical-CB-8-CIRCLE_v5;1;1;22;"<?xml version=""1.0""?>\n<Clock xmlns:dt=""urn:schemas-microsoft-com:datatypes""><Description dt:dt=""string"">E-Prime Primary Realtime Clock</Description><StartTime><Timestamp dt:dt=""int"">0</Timestamp><DateUtc dt:dt=""string"">2017-05-14T13:58:50Z</DateUtc></StartTime><FrequencyChanges><FrequencyChange><Frequency dt:dt=""r8"">10000000</Frequency><Timestamp dt:dt=""r8"">21712191420</Timestamp><Current dt:dt=""r8"">0</Current><DateUtc dt:dt=""string"">2017-05-14T13:58:50Z</DateUtc></FrequencyChange></FrequencyChanges></Clock>\n";0.0;1;diestro;cris;239250258;05-14-2017;15:58:50;mujer;2;1.0;1.0;1.0;;;;experimental;blockproc;blocklist;64;1;0;2;966221;1;1;L;U;A;0;;0;6;956086;{SPACE};9631;965717;trialproc;1;0;;-999999;12;966234;1;1434;967668;triallist;BMPs/Ua.bmp;BMPs/Oc.bmp;BMPs/Fz.bmp;BMPs/Ma.bmp;BMPs/Ak.bmp;BMPs/Nz.bmp;BMPs/En.bmp;BMPs/Ce.bmp;BMPs/Uk.bmp;U;K;559.0;1.0;64.0;;;;50;15
66;Hierarchical-CB-8-CIRCLE_v5;1;1;22;"<?xml version=""1.0""?>\n<Clock xmlns:dt=""urn:schemas-microsoft-com:datatypes""><Description dt:dt=""string"">E-Prime Primary Realtime Clock</Description><StartTime><Timestamp dt:dt=""int"">0</Timestamp><DateUtc dt:dt=""string"">2017-05-14T13:58:50Z</DateUtc></StartTime><FrequencyChanges><FrequencyChange><Frequency dt:dt=""r8"">10000000</Frequency><Timestamp dt:dt=""r8"">21712191420</Timestamp><Current dt:dt=""r8"">0</Current><DateUtc dt:dt=""string"">2017-05-14T13:58:50Z</DateUtc></FrequencyChange></FrequencyChanges></Clock>\n";0.0;1;diestro;cris;239250258;05-14-2017;15:58:50;mujer;2;1.0;1.0;1.0;;;;experimental;blockproc;blocklist;65;1;0;2;977153;3;3;GL;E;K;0;;0;7;970787;{SPACE};5862;976649;trialproc;3;0;;-999999;10;977164;1;1180;978344;triallist;BMPs/Eu.bmp;BMPs/An.bmp;BMPs/Ek.bmp;BMPs/Fc.bmp;BMPs/Nz.bmp;BMPs/Ka.bmp;BMPs/Ho.bmp;BMPs/Ae.bmp;BMPs/Kz.bmp;K;Z;320.0;1.0;65.0;;;;80;50
67;Hierarchical-CB-8-CIRCLE_v5;1;1;22;"<?xml version=""1.0""?>\n<Clock xmlns:dt=""urn:schemas-microsoft-com:datatypes""><Description dt:dt=""string"">E-Prime Primary Realtime Clock</Description><StartTime><Timestamp dt:dt=""int"">0</Timestamp><DateUtc dt:dt=""string"">2017-05-14T13:58:50Z</DateUtc></StartTime><FrequencyChanges><FrequencyChange><Frequency dt:dt=""r8"">10000000</Frequency><Timestamp dt:dt=""r8"">21712191420</Timestamp><Current dt:dt=""r8"">0</Current><DateUtc dt:dt=""string"">2017-05-14T13:58:50Z</DateUtc></FrequencyChange></FrequencyChanges></Clock>\n";0.0;1;diestro;cris;239250258;05-14-2017;15:58:50;mujer;2;1.0;1.0;1.0;;;;experimental;blockproc;blocklist;66;1;0;2;996247;2;2;L;H;M;0;;0;6;981628;{SPACE};14115;995743;trialproc;2;0;;-999999;14;996262;1;3166;999428;triallist;BMPs/Zo.bmp;BMPs/Hm.bmp;BMPs/Nm.bmp;BMPs/Ho.bmp;BMPs/Eo.bmp;BMPs/Ah.bmp;BMPs/Co.bmp;BMPs/Uc.bmp;BMPs/Hn.bmp;H;N;545.0;1.0;66.0;;;;71;28
68;Hierarchical-CB-8-CIRCLE_v5;1;1;22;"<?xml version=""1.0""?>\n<Clock xmlns:dt=""urn:schemas-microsoft-com:datatypes""><Description dt:dt=""string"">E-Prime Primary Realtime Clock</Description><StartTime><Timestamp dt:dt=""int"">0</Timestamp><DateUtc dt:dt=""string"">2017-05-14T13:58:50Z</DateUtc></StartTime><FrequencyChanges><FrequencyChange><Frequency dt:dt=""r8"">10000000</Frequency><Timestamp dt:dt=""r8"">21712191420</Timestamp><Current dt:dt=""r8"">0</Current><DateUtc dt:dt=""string"">2017-05-14T13:58:50Z</DateUtc></FrequencyChange></FrequencyChanges></Clock>\n";0.0;1;diestro;cris;239250258;05-14-2017;15:58:50;mujer;2;1.0;1.0;1.0;;;;experimental;blockproc;blocklist;67;1;0;2;1014431;1;1;L;M;C;0;;0;6;1002883;{SPACE};11044;1013927;trialproc;1;0;;-999999;13;1014445;1;1378;1015823;triallist;BMPs/Mc.bmp;BMPs/Ma.bmp;BMPs/Ao.bmp;BMPs/Hu.bmp;BMPs/Kn.bmp;BMPs/Oa.bmp;BMPs/Hn.bmp;BMPs/Fe.bmp;BMPs/Mf.bmp;M;F;904.0;1.0;67.0;;;;50;15
69;Hierarchical-CB-8-CIRCLE_v5;1;1;22;"<?xml version=""1.0""?>\n<Clock xmlns:dt=""urn:schemas-microsoft-com:datatypes""><Description dt:dt=""string"">E-Prime Primary Realtime Clock</Description><StartTime><Timestamp dt:dt=""int"">0</Timestamp><DateUtc dt:dt=""string"">2017-05-14T13:58:50Z</DateUtc></StartTime><FrequencyChanges><FrequencyChange><Frequency dt:dt=""r8"">10000000</Frequency><Timestamp dt:dt=""r8"">21712191420</Timestamp><Current dt:dt=""r8"">0</Current><DateUtc dt:dt=""string"">2017-05-14T13:58:50Z</DateUtc></FrequencyChange></FrequencyChanges></Clock>\n";0.0;1;diestro;cris;239250258;05-14-2017;15:58:50;mujer;2;1.0;1.0;1.0;;;;experimental;blockproc;blocklist;68;1;1;3;1027813;2;2;GL;N;Z;0;;0;6;1019247;{SPACE};8061;1027308;trialproc;2;0;;-999999;12;1027826;1;1195;1029021;triallist;BMPs/Uh.bmp;BMPs/Nz.bmp;BMPs/Ho.bmp;BMPs/On.bmp;BMPs/Ca.bmp;BMPs/Ce.bmp;BMPs/Fz.bmp;BMPs/Zu.bmp;BMPs/Hm.bmp;H;M;279.0;1.0;68.0;;;;71;28
70;Hierarchical-CB-8-CIRCLE_v5;1;1;22;"<?xml version=""1.0""?>\n<Clock xmlns:dt=""urn:schemas-microsoft-com:datatypes""><Description dt:dt=""string"">E-Prime Primary Realtime Clock</Description><StartTime><Timestamp dt:dt=""int"">0</Timestamp><DateUtc dt:dt=""string"">2017-05-14T13:58:50Z</DateUtc></StartTime><FrequencyChanges><FrequencyChange><Frequency dt:dt=""r8"">10000000</Frequency><Timestamp dt:dt=""r8"">21712191420</Timestamp><Current dt:dt=""r8"">0</Current><DateUtc dt:dt=""string"">2017-05-14T13:58:50Z</DateUtc></FrequencyChange></FrequencyChanges></Clock>\n";0.0;1;diestro;cris;239250258;05-14-2017;15:58:50;mujer;2;1.0;1.0;1.0;;;;experimental;blockproc;blocklist;69;1;0;2;1037388;6;6;G;E;F;0;;0;6;1032177;{SPACE};4707;1036884;trialproc;6;0;;-999999;7;1037396;1;1410;1038806;triallist;BMPs/Cz.bmp;BMPs/Zo.bmp;BMPs/Cm.bmp;BMPs/Fk.bmp;BMPs/Au.bmp;BMPs/Ef.bmp;BMPs/Fn.bmp;BMPs/Ez.bmp;BMPs/Zf.bmp;Z;F;622.0;1.0;69.0;;;;29;73
71;Hierarchical-CB-8-CIRCLE_v5;1;1;22;"<?xml version=""1.0""?>\n<Clock xmlns:dt=""urn:schemas-microsoft-com:datatypes""><Description dt:dt=""string"">E-Prime Primary Realtime Clock</Description><StartTime><Timestamp dt:dt=""int"">0</Timestamp><DateUtc dt:dt=""string"">2017-05-14T13:58:50Z</DateUtc></StartTime><FrequencyChanges><FrequencyChange><Frequency dt:dt=""r8"">10000000</Frequency><Timestamp dt:dt=""r8"">21712191420</Timestamp><Current dt:dt=""r8"">0</Current><DateUtc dt:dt=""string"">2017-05-14T13:58:50Z</DateUtc></FrequencyChange></FrequencyChanges></Clock>\n";0.0;1;diestro;cris;239250258;05-14-2017;15:58:50;mujer;2;1.0;1.0;1.0;;;;experimental;blockproc;blocklist;70;1;0;2;1045449;3;3;GL;E;F;0;;0;7;1041830;{SPACE};3115;1044945;trialproc;3;0;;-999999;9;1045459;1;1008;1046467;triallist;BMPs/Kf.bmp;BMPs/Uh.bmp;BMPs/Ef.bmp;BMPs/Fe.bmp;BMPs/Hk.bmp;BMPs/Am.bmp;BMPs/Cz.bmp;BMPs/Hz.bmp;BMPs/Zu.bmp;Z;U;85.0;1.0;70.0;;;;80;50
72;Hierarchical-CB-8-CIRCLE_v5;1;1;22;"<?xml version=""1.0""?>\n<Clock xmlns:dt=""urn:schemas-microsoft-com:datatypes""><Description dt:dt=""string"">E-Prime Primary Realtime Clock</Description><StartTime><Timestamp dt:dt=""int"">0</Timestamp><DateUtc dt:dt=""string"">2017-05-14T13:58:50Z</DateUtc></StartTime><FrequencyChanges><FrequencyChange><Frequency dt:dt=""r8"">10000000</Frequency><Timestamp dt:dt=""r8"">21712191420</Timestamp><Current dt:dt=""r8"">0</Current><DateUtc dt:dt=""string"">2017-05-14T13:58:50Z</DateUtc></FrequencyChange></FrequencyChanges></Clock>\n";0.0;1;diestro;cris;239250258;05-14-2017;15:58:50;mujer;2;1.0;1.0;1.0;;;;experimental;blockproc;blocklist;71;1;1;2;1060082;8;8;GL;O;E;0;;0;7;1049504;{SPACE};10074;1059578;trialproc;8;0;;-999999;11;1060094;1;872;1060966;triallist;BMPs/Ke.bmp;BMPs/Zk.bmp;BMPs/Zh.bmp;BMPs/Nh.bmp;BMPs/Ae.bmp;BMPs/Mc.bmp;BMPs/Mf.bmp;BMPs/Oe.bmp;BMPs/Ma.bmp;M;A;348.0;1.0;71.0;;;;29;27
73;Hierarchical-CB-8-CIRCLE_v5;1;1;22;"<?xml version=""1.0""?>\n<Clock xmlns:dt=""urn:schemas-microsoft-com:datatypes""><Description dt:dt=""string"">E-Prime Primary Realtime Clock</Description><StartTime><Timestamp dt:dt=""int"">0</Timestamp><DateUtc dt:dt=""string"">2017-05-14T13:58:50Z</DateUtc></StartTime><FrequencyChanges><FrequencyChange><Frequency dt:dt=""r8"">10000000</Frequency><Timestamp dt:dt=""r8"">21712191420</Timestamp><Current dt:dt=""r8"">0</Current><DateUtc dt:dt=""string"">2017-05-14T13:58:50Z</DateUtc></FrequencyChange></FrequencyChanges></Clock>\n";0.0;1;diestro;cris;239250258;05-14-2017;15:58:50;mujer;2;1.0;1.0;1.0;;;;experimental;blockproc;blocklist;72;1;0;2;1073250;8;8;L;Z;M;0;;0;6;1064061;{SPACE};8685;1072746;trialproc;8;0;;-999999;8;1073259;1;1077;1074336;triallist;BMPs/Mu.bmp;BMPs/Ha.bmp;BMPs/Az.bmp;BMPs/Zh.bmp;BMPs/Ez.bmp;BMPs/Ae.bmp;BMPs/Au.bmp;BMPs/Zm.bmp;BMPs/Zo.bmp;Z;O;23.0;1.0;72.0;;;;29;27
74;Hierarchical-CB-8-CIRCLE_v5;1;1;22;"<?xml version=""1.0""?>\n<Clock xmlns:dt=""urn:schemas-microsoft-com:datatypes""><Description dt:dt=""string"">E-Prime Primary Realtime Clock</Description><StartTime><Timestamp dt:dt=""int"">0</Timestamp><DateUtc dt:dt=""string"">2017-05-14T13:58:50Z</DateUtc></StartTime><FrequencyChanges><FrequencyChange><Frequency dt:dt=""r8"">10000000</Frequency><Timestamp dt:dt=""r8"">21712191420</Timestamp><Current dt:dt=""r8"">0</Current><DateUtc dt:dt=""string"">2017-05-14T13:58:50Z</DateUtc></FrequencyChange></FrequencyChanges></Clock>\n";0.0;1;diestro;cris;239250258;05-14-2017;15:58:50;mujer;2;1.0;1.0;1.0;;;;experimental;blockproc;blocklist;73;1;0;2;1081113;3;3;G;M;C;0;;0;6;1077182;{SPACE};3427;1080609;trialproc;3;0;;-999999;11;1081125;1;1321;1082446;triallist;BMPs/Cn.bmp;BMPs/Kc.bmp;BMPs/Mc.bmp;BMPs/Zm.bmp;BMPs/Eh.bmp;BMPs/Ko.bmp;BMPs/Uk.bmp;BMPs/On.bmp;BMPs/Hc.bmp;H;C;532.0;1.0;73.0;;;;80;50
75;Hierarchical-CB-8-CIRCLE_v5;1;1;22;"<?xml version=""1.0""?>\n<Clock xmlns:dt=""urn:schemas-microsoft-com:datatypes""><Description dt:dt=""string"">E-Prime Primary Realtime Clock</Description><StartTime><Timestamp dt:dt=""int"">0</Timestamp><DateUtc dt:dt=""string"">2017-05-14T13:58:50Z</DateUtc></StartTime><FrequencyChanges><FrequencyChange><Frequency dt:dt=""r8"">10000000</Frequency><Timestamp dt:dt=""r8"">21712191420</Timestamp><Current dt:dt=""r8"">0</Current><DateUtc dt:dt=""string"">2017-05-14T13:58:50Z</DateUtc></FrequencyChange></FrequencyChanges></Clock>\n";0.0;1;diestro;cris;239250258;05-14-2017;15:58:50;mujer;2;1.0;1.0;1.0;;;;experimental;blockproc;blocklist;74;1;0;2;1095793;1;1;L;N;F;0;;0;6;1085308;{SPACE};9981;1095289;trialproc;1;0;;-999999;10;1095804;1;1435;1097239;triallist;BMPs/Nf.bmp;BMPs/Me.bmp;BMPs/Ao.bmp;BMPs/Ac.bmp;BMPs/Nh.bmp;BMPs/Kz.bmp;BMPs/Ku.bmp;BMPs/Oa.bmp;BMPs/Na.bmp;N;A;444.0;1.0;74.0;;;;50;15
76;Hierarchical-CB-8-CIRCLE_v5;1;1;22;"<?xml version=""1.0""?>\n<Clock xmlns:dt=""urn:schemas-microsoft-com:datatypes""><Description dt:dt=""string"">E-Prime Primary Realtime Clock</Description><StartTime><Timestamp dt:dt=""int"">0</Timestamp><DateUtc dt:dt=""string"">2017-05-14T13:58:50Z</DateUtc></StartTime><FrequencyChanges><FrequencyChange><Frequency dt:dt=""r8"">10000000</Frequency><Timestamp dt:dt=""r8"">21712191420</Timestamp><Current dt:dt=""r8"">0</Current><DateUtc dt:dt=""string"">2017-05-14T13:58:50Z</DateUtc></FrequencyChange></FrequencyChanges></Clock>\n";0.0;1;diestro;cris;239250258;05-14-2017;15:58:50;mujer;2;1.0;1.0;1.0;;;;experimental;blockproc;blocklist;75;1;0;2;1111087;3;3;G;E;A;0;;0;6;1100693;{SPACE};9890;1110583;trialproc;3;0;;-999999;10;1111098;1;1175;1112273;triallist;BMPs/Nk.bmp;BMPs/Fe.bmp;BMPs/Ea.bmp;BMPs/Em.bmp;BMPs/Ez.bmp;BMPs/Kz.bmp;BMPs/Fu.bmp;BMPs/Ek.bmp;BMPs/Ka.bmp;K;A;678.0;1.0;75.0;;;;80;50
77;Hierarchical-CB-8-CIRCLE_v5;1;1;22;"<?xml version=""1.0""?>\n<Clock xmlns:dt=""urn:schemas-microsoft-com:datatypes""><Description dt:dt=""string"">E-Prime Primary Realtime Clock</Description><StartTime><Timestamp dt:dt=""int"">0</Timestamp><DateUtc dt:dt=""string"">2017-05-14T13:58:50Z</DateUtc></StartTime><FrequencyChanges><FrequencyChange><Frequency dt:dt=""r8"">10000000</Frequency><Timestamp dt:dt=""r8"">21712191420</Timestamp><Current dt:dt=""r8"">0</Current><DateUtc dt:dt=""string"">2017-05-14T13:58:50Z</DateUtc></FrequencyChange></FrequencyChanges></Clock>\n";0.0;1;diestro;cris;239250258;05-14-2017;15:58:50;mujer;2;1.0;1.0;1.0;;;;experimental;blockproc;blocklist;76;1;0;2;1118140;1;1;GL;U;K;0;;0;7;1115534;{SPACE};2102;1117636;trialproc;1;0;;-999999;9;1118150;1;930;1119080;triallist;BMPs/Uk.bmp;BMPs/On.bmp;BMPs/Hf.bmp;BMPs/Uo.bmp;BMPs/Kf.bmp;BMPs/Zh.bmp;BMPs/Ez.bmp;BMPs/Az.bmp;BMPs/Fh.bmp;F;H;220.0;1.0;76.0;;;;50;15
78;Hierarchical-CB-8-CIRCLE_v5;1;1;22;"<?xml version=""1.0""?>\n<Clock xmlns:dt=""urn:schemas-microsoft-com:datatypes""><Description dt:dt=""string"">E-Prime Primary Realtime Clock</Description><StartTime><Timestamp dt:dt=""int"">0</Timestamp><DateUtc dt:dt=""string"">2017-05-14T13:58:50Z</DateUtc></StartTime><FrequencyChanges><FrequencyChange><Frequency dt:dt=""r8"">10000000</Frequency><Timestamp dt:dt=""r8"">21712191420</Timestamp><Current dt:dt=""r8"">0</Current><DateUtc dt:dt=""string"">2017-05-14T13:58:50Z</DateUtc></FrequencyChange></FrequencyChanges></Clock>\n";0.0;1;diestro;cris;239250258;05-14-2017;15:58:50;mujer;2;1.0;1.0;1.0;;;;experimental;blockproc;blocklist;77;1;0;2;1126093;4;4;G;K;O;0;;0;6;1122033;{SPACE};3556;1125589;trialproc;4;0;;-999999;11;1126105;1;905;1127010;triallist;BMPs/Kn.bmp;BMPs/Oz.bmp;BMPs/Ho.bmp;BMPs/Ko.bmp;BMPs/Oe.bmp;BMPs/Zm.bmp;BMPs/Ze.bmp;BMPs/Ok.bmp;BMPs/Zo.bmp;Z;O;436.0;1.0;77.0;;;;71;73
79;Hierarchical-CB-8-CIRCLE_v5;1;1;22;"<?xml version=""1.0""?>\n<Clock xmlns:dt=""urn:schemas-microsoft-com:datatypes""><Description dt:dt=""string"">E-Prime Primary Realtime Clock</Description><StartTime><Timestamp dt:dt=""int"">0</Timestamp><DateUtc dt:dt=""string"">2017-05-14T13:58:50Z</DateUtc></StartTime><FrequencyChanges><FrequencyChange><Frequency dt:dt=""r8"">10000000</Frequency><Timestamp dt:dt=""r8"">21712191420</Timestamp><Current dt:dt=""r8"">0</Current><DateUtc dt:dt=""string"">2017-05-14T13:58:50Z</DateUtc></FrequencyChange></FrequencyChanges></Clock>\n";0.0;1;diestro;cris;239250258;05-14-2017;15:58:50;mujer;2;1.0;1.0;1.0;;;;experimental;blockproc;blocklist;78;1;0;2;1133664;3;3;G;K;H;0;;0;6;1130955;{SPACE};2205;1133160;trialproc;3;0;;-999999;12;1133677;1;1234;1134911;triallist;BMPs/Fo.bmp;BMPs/On.bmp;BMPs/Kh.bmp;BMPs/Ck.bmp;BMPs/Oh.bmp;BMPs/Hn.bmp;BMPs/Zf.bmp;BMPs/Ou.bmp;BMPs/Ah.bmp;A;H;690.0;1.0;78.0;;;;80;50
80;Hierarchical-CB-8-CIRCLE_v5;1;1;22;"<?xml version=""1.0""?>\n<Clock xmlns:dt=""urn:schemas-microsoft-com:datatypes""><Description dt:dt=""string"">E-Prime Primary Realtime Clock</Description><StartTime><Timestamp dt:dt=""int"">0</Timestamp><DateUtc dt:dt=""string"">2017-05-14T13:58:50Z</DateUtc></StartTime><FrequencyChanges><FrequencyChange><Frequency dt:dt=""r8"">10000000</Frequency><Timestamp dt:dt=""r8"">21712191420</Timestamp><Current dt:dt=""r8"">0</Current><DateUtc dt:dt=""string"">2017-05-14T13:58:50Z</DateUtc></FrequencyChange></FrequencyChanges></Clock>\n";0.0;1;diestro;cris;239250258;05-14-2017;15:58:50;mujer;2;1.0;1.0;1.0;;;;experimental;blockproc;blocklist;79;1;0;2;1155671;8;8;L;A;N;0;;0;6;1137963;{SPACE};17204;1155167;trialproc;8;0;;-999999;8;1155680;1;1183;1156863;triallist;BMPs/Ez.bmp;BMPs/Cz.bmp;BMPs/Zc.bmp;BMPs/Mz.bmp;BMPs/Um.bmp;BMPs/Cf.bmp;BMPs/He.bmp;BMPs/An.bmp;BMPs/Az.bmp;A;Z;742.0;1.0;79.0;;;;29;27
81;Hierarchical-CB-8-CIRCLE_v5;1;1;22;"<?xml version=""1.0""?>\n<Clock xmlns:dt=""urn:schemas-microsoft-com:datatypes""><Description dt:dt=""string"">E-Prime Primary Realtime Clock</Description><StartTime><Timestamp dt:dt=""int"">0</Timestamp><DateUtc dt:dt=""string"">2017-05-14T13:58:50Z</DateUtc></StartTime><FrequencyChanges><FrequencyChange><Frequency dt:dt=""r8"">10000000</Frequency><Timestamp dt:dt=""r8"">21712191420</Timestamp><Current dt:dt=""r8"">0</Current><DateUtc dt:dt=""string"">2017-05-14T13:58:50Z</DateUtc></FrequencyChange></FrequencyChanges></Clock>\n";0.0;1;diestro;cris;239250258;05-14-2017;15:58:50;mujer;2;1.0;1.0;1.0;;;;experimental;blockproc;blocklist;80;1;0;2;1166471;8;8;GL;N;A;0;;0;7;1160114;{SPACE};5853;1165967;trialproc;8;0;;-999999;12;1166484;1;655;1167139;triallist;BMPs/Zu.bmp;BMPs/Fk.bmp;BMPs/Mn.bmp;BMPs/Oa.bmp;BMPs/Cz.bmp;BMPs/Um.bmp;BMPs/Mk.bmp;BMPs/Na.bmp;BMPs/Ok.bmp;O;K;168.0;1.0;80.0;;;;29;27
82;Hierarchical-CB-8-CIRCLE_v5;1;1;22;"<?xml version=""1.0""?>\n<Clock xmlns:dt=""urn:schemas-microsoft-com:datatypes""><Description dt:dt=""string"">E-Prime Primary Realtime Clock</Description><StartTime><Timestamp dt:dt=""int"">0</Timestamp><DateUtc dt:dt=""string"">2017-05-14T13:58:50Z</DateUtc></StartTime><FrequencyChanges><FrequencyChange><Frequency dt:dt=""r8"">10000000</Frequency><Timestamp dt:dt=""r8"">21712191420</Timestamp><Current dt:dt=""r8"">0</Current><DateUtc dt:dt=""string"">2017-05-14T13:58:50Z</DateUtc></FrequencyChange></FrequencyChanges></Clock>\n";0.0;1;diestro;cris;239250258;05-14-2017;15:58:50;mujer;2;1.0;1.0;1.0;;;;experimental;blockproc;blocklist;81;1;1;2;1175531;4;4;G;M;C;0;;0;6;1170250;{SPACE};4777;1175027;trialproc;4;0;;-999999;9;1175541;1;938;1176479;triallist;BMPs/Ea.bmp;BMPs/Zk.bmp;BMPs/Nk.bmp;BMPs/Mc.bmp;BMPs/Ac.bmp;BMPs/Af.bmp;BMPs/Fa.bmp;BMPs/Co.bmp;BMPs/Fc.bmp;F;C;499.0;1.0;81.0;;;;71;73
83;Hierarchical-CB-8-CIRCLE_v5;1;1;22;"<?xml version=""1.0""?>\n<Clock xmlns:dt=""urn:schemas-microsoft-com:datatypes""><Description dt:dt=""string"">E-Prime Primary Realtime Clock</Description><StartTime><Timestamp dt:dt=""int"">0</Timestamp><DateUtc dt:dt=""string"">2017-05-14T13:58:50Z</DateUtc></StartTime><FrequencyChanges><FrequencyChange><Frequency dt:dt=""r8"">10000000</Frequency><Timestamp dt:dt=""r8"">21712191420</Timestamp><Current dt:dt=""r8"">0</Current><DateUtc dt:dt=""string"">2017-05-14T13:58:50Z</DateUtc></FrequencyChange></FrequencyChanges></Clock>\n";0.0;1;diestro;cris;239250258;05-14-2017;15:58:50;mujer;2;1.0;1.0;1.0;;;;experimental;blockproc;blocklist;82;1;0;2;1182642;1;1;GL;K;A;0;;0;7;1179571;{SPACE};2567;1182138;trialproc;1;0;;-999999;8;1182651;1;1063;1183714;triallist;BMPs/Ka.bmp;BMPs/Mo.bmp;BMPs/Ae.bmp;BMPs/Zf.bmp;BMPs/Kf.bmp;BMPs/Zo.bmp;BMPs/Ao.bmp;BMPs/Ch.bmp;BMPs/Em.bmp;E;M;246.0;1.0;82.0;;;;50;15
84;Hierarchical-CB-8-CIRCLE_v5;1;1;22;"<?xml version=""1.0""?>\n<Clock xmlns:dt=""urn:schemas-microsoft-com:datatypes""><Description dt:dt=""string"">E-Prime Primary Realtime Clock</Description><StartTime><Timestamp dt:dt=""int"">0</Timestamp><DateUtc dt:dt=""string"">2017-05-14T13:58:50Z</DateUtc></StartTime><FrequencyChanges><FrequencyChange><Frequency dt:dt=""r8"">10000000</Frequency><Timestamp dt:dt=""r8"">21712191420</Timestamp><Current dt:dt=""r8"">0</Current><DateUtc dt:dt=""string"">2017-05-14T13:58:50Z</DateUtc></FrequencyChange></FrequencyChanges></Clock>\n";0.0;1;diestro;cris;239250258;05-14-2017;15:58:50;mujer;2;1.0;1.0;1.0;;;;experimental;blockproc;blocklist;83;1;0;2;1206109;8;8;L;Z;K;0;;0;6;1186524;{SPACE};19081;1205605;trialproc;8;0;;-999999;8;1206118;1;1589;1207707;triallist;BMPs/Kh.bmp;BMPs/Mk.bmp;BMPs/Nh.bmp;BMPs/On.bmp;BMPs/No.bmp;BMPs/Ch.bmp;BMPs/Cm.bmp;BMPs/Zk.bmp;BMPs/Zn.bmp;Z;N;733.0;1.0;83.0;;;;29;27
85;Hierarchical-CB-8-CIRCLE_v5;1;1;22;"<?xml version=""1.0""?>\n<Clock xmlns:dt=""urn:schemas-microsoft-com:datatypes""><Description dt:dt=""string"">E-Prime Primary Realtime Clock</Description><StartTime><Timestamp dt:dt=""int"">0</Timestamp><DateUtc dt:dt=""string"">2017-05-14T13:58:50Z</DateUtc></StartTime><FrequencyChanges><FrequencyChange><Frequency dt:dt=""r8"">10000000</Frequency><Timestamp dt:dt=""r8"">21712191420</Timestamp><Current dt:dt=""r8"">0</Current><DateUtc dt:dt=""string"">2017-05-14T13:58:50Z</DateUtc></FrequencyChange></FrequencyChanges></Clock>\n";0.0;1;diestro;cris;239250258;05-14-2017;15:58:50;mujer;2;1.0;1.0;1.0;;;;experimental;blockproc;blocklist;84;1;0;2;1220107;4;4;GL;E;O;0;;0;6;1210860;{SPACE};8743;1219603;trialproc;4;0;;-999999;9;1220117;1;1223;1221340;triallist;BMPs/Mk.bmp;BMPs/Nc.bmp;BMPs/Nz.bmp;BMPs/Eo.bmp;BMPs/On.bmp;BMPs/Ea.bmp;BMPs/Mo.bmp;BMPs/Um.bmp;BMPs/Nk.bmp;N;K;151.0;1.0;84.0;;;;71;73
86;Hierarchical-CB-8-CIRCLE_v5;1;1;22;"<?xml version=""1.0""?>\n<Clock xmlns:dt=""urn:schemas-microsoft-com:datatypes""><Description dt:dt=""string"">E-Prime Primary Realtime Clock</Description><StartTime><Timestamp dt:dt=""int"">0</Timestamp><DateUtc dt:dt=""string"">2017-05-14T13:58:50Z</DateUtc></StartTime><FrequencyChanges><FrequencyChange><Frequency dt:dt=""r8"">10000000</Frequency><Timestamp dt:dt=""r8"">21712191420</Timestamp><Current dt:dt=""r8"">0</Current><DateUtc dt:dt=""string"">2017-05-14T13:58:50Z</DateUtc></FrequencyChange></FrequencyChanges></Clock>\n";0.0;1;diestro;cris;239250258;05-14-2017;15:58:50;mujer;2;1.0;1.0;1.0;;;;experimental;blockproc;blocklist;85;1;0;2;1234790;6;6;G;H;F;0;;0;7;1224709;{SPACE};9577;1234286;trialproc;6;0;;-999999;10;1234801;1;867;1235668;triallist;BMPs/Hm.bmp;BMPs/Mu.bmp;BMPs/Na.bmp;BMPs/Ck.bmp;BMPs/Cz.bmp;BMPs/Hf.bmp;BMPs/He.bmp;BMPs/Zf.bmp;BMPs/Nf.bmp;N;F;928.0;1.0;85.0;;;;29;73
87;Hierarchical-CB-8-CIRCLE_v5;1;1;22;"<?xml version=""1.0""?>\n<Clock xmlns:dt=""urn:schemas-microsoft-com:datatypes""><Description dt:dt=""string"">E-Prime Primary Realtime Clock</Description><StartTime><Timestamp dt:dt=""int"">0</Timestamp><DateUtc dt:dt=""string"">2017-05-14T13:58:50Z</DateUtc></StartTime><FrequencyChanges><FrequencyChange><Frequency dt:dt=""r8"">10000000</Frequency><Timestamp dt:dt=""r8"">21712191420</Timestamp><Current dt:dt=""r8"">0</Current><DateUtc dt:dt=""string"">2017-05-14T13:58:50Z</DateUtc></FrequencyChange></FrequencyChanges></Clock>\n";0.0;1;diestro;cris;239250258;05-14-2017;15:58:50;mujer;2;1.0;1.0;1.0;;;;experimental;blockproc;blocklist;86;1;0;2;1252677;7;7;L;E;C;0;;0;6;1239301;{SPACE};12873;1252174;trialproc;7;0;;-999999;12;1252690;1;673;1253363;triallist;BMPs/Kh.bmp;BMPs/Hc.bmp;BMPs/Ua.bmp;BMPs/Af.bmp;BMPs/Uc.bmp;BMPs/Zo.bmp;BMPs/Ec.bmp;BMPs/Ue.bmp;BMPs/Eo.bmp;E;O;598.0;1.0;86.0;;;;20;50
88;Hierarchical-CB-8-CIRCLE_v5;1;1;22;"<?xml version=""1.0""?>\n<Clock xmlns:dt=""urn:schemas-microsoft-com:datatypes""><Description dt:dt=""string"">E-Prime Primary Realtime Clock</Description><StartTime><Timestamp dt:dt=""int"">0</Timestamp><DateUtc dt:dt=""string"">2017-05-14T13:58:50Z</DateUtc></StartTime><FrequencyChanges><FrequencyChange><Frequency dt:dt=""r8"">10000000</Frequency><Timestamp dt:dt=""r8"">21712191420</Timestamp><Current dt:dt=""r8"">0</Current><DateUtc dt:dt=""string"">2017-05-14T13:58:50Z</DateUtc></FrequencyChange></FrequencyChanges></Clock>\n";0.0;1;diestro;cris;239250258;05-14-2017;15:58:50;mujer;2;1.0;1.0;1.0;;;;experimental;blockproc;blocklist;87;1;0;2;1265961;3;3;G;H;Z;0;;0;6;1259735;{SPACE};5722;1265457;trialproc;3;0;;-999999;12;1265974;1;911;1266885;triallist;BMPs/Zc.bmp;BMPs/Zk.bmp;BMPs/Hz.bmp;BMPs/Ze.bmp;BMPs/Oz.bmp;BMPs/Nm.bmp;BMPs/Hn.bmp;BMPs/Kc.bmp;BMPs/Fz.bmp;F;Z;528.0;1.0;87.0;;;;80;50
89;Hierarchical-CB-8-CIRCLE_v5;1;1;22;"<?xml version=""1.0""?>\n<Clock xmlns:dt=""urn:schemas-microsoft-com:datatypes""><Description dt:dt=""string"">E-Prime Primary Realtime Clock</Description><StartTime><Timestamp dt:dt=""int"">0</Timestamp><DateUtc dt:dt=""string"">2017-05-14T13:58:50Z</DateUtc></StartTime><FrequencyChanges><FrequencyChange><Frequency dt:dt=""r8"">10000000</Frequency><Timestamp dt:dt=""r8"">21712191420</Timestamp><Current dt:dt=""r8"">0</Current><DateUtc dt:dt=""string"">2017-05-14T13:58:50Z</DateUtc></FrequencyChange></FrequencyChanges></Clock>\n";0.0;1;diestro;cris;239250258;05-14-2017;15:58:50;mujer;2;1.0;1.0;1.0;;;;experimental;blockproc;blocklist;88;1;0;2;1274742;7;7;GL;F;Z;0;;0;8;1269812;{SPACE};4426;1274238;trialproc;7;0;;-999999;9;1274752;1;1027;1275779;triallist;BMPs/Cz.bmp;BMPs/Ua.bmp;BMPs/Ho.bmp;BMPs/Zm.bmp;BMPs/Of.bmp;BMPs/Km.bmp;BMPs/Fz.bmp;BMPs/Hk.bmp;BMPs/Uo.bmp;U;O;126.0;1.0;88.0;;;;20;50
90;Hierarchical-CB-8-CIRCLE_v5;1;1;22;"<?xml version=""1.0""?>\n<Clock xmlns:dt=""urn:schemas-microsoft-com:datatypes""><Description dt:dt=""string"">E-Prime Primary Realtime Clock</Description><StartTime><Timestamp dt:dt=""int"">0</Timestamp><DateUtc dt:dt=""string"">2017-05-14T13:58:50Z</DateUtc></StartTime><FrequencyChanges><FrequencyChange><Frequency dt:dt=""r8"">10000000</Frequency><Timestamp dt:dt=""r8"">21712191420</Timestamp><Current dt:dt=""r8"">0</Current><DateUtc dt:dt=""string"">2017-05-14T13:58:50Z</DateUtc></FrequencyChange></FrequencyChanges></Clock>\n";0.0;1;diestro;cris;239250258;05-14-2017;15:58:50;mujer;2;1.0;1.0;1.0;;;;experimental;blockproc;blocklist;89;1;0;2;1284184;4;4;GL;F;H;0;;0;6;1278811;{SPACE};4869;1283680;trialproc;4;0;;-999999;8;1284193;1;830;1285023;triallist;BMPs/Un.bmp;BMPs/Mc.bmp;BMPs/Oc.bmp;BMPs/Fh.bmp;BMPs/Kn.bmp;BMPs/Ef.bmp;BMPs/Uc.bmp;BMPs/Km.bmp;BMPs/Nc.bmp;N;C;52.0;1.0;89.0;;;;71;73
91;Hierarchical-CB-8-CIRCLE_v5;1;1;22;"<?xml version=""1.0""?>\n<Clock xmlns:dt=""urn:schemas-microsoft-com:datatypes""><Description dt:dt=""string"">E-Prime Primary Realtime Clock</Description><StartTime><Timestamp dt:dt=""int"">0</Timestamp><DateUtc dt:dt=""string"">2017-05-14T13:58:50Z</DateUtc></StartTime><FrequencyChanges><FrequencyChange><Frequency dt:dt=""r8"">10000000</Frequency><Timestamp dt:dt=""r8"">21712191420</Timestamp><Current dt:dt=""r8"">0</Current><DateUtc dt:dt=""string"">2017-05-14T13:58:50Z</DateUtc></FrequencyChange></FrequencyChanges></Clock>\n";0.0;1;diestro;cris;239250258;05-14-2017;15:58:50;mujer;2;1.0;1.0;1.0;;;;experimental;blockproc;blocklist;90;1;0;3;1294723;6;6;G;C;M;0;;0;6;1287910;{SPACE};6308;1294218;trialproc;6;0;;-999999;10;1294734;1;770;1295504;triallist;BMPs/Ho.bmp;BMPs/Ea.bmp;BMPs/Nu.bmp;BMPs/Zn.bmp;BMPs/Um.bmp;BMPs/Cm.bmp;BMPs/Hk.bmp;BMPs/Ha.bmp;BMPs/Fm.bmp;F;M;810.0;1.0;90.0;;;;29;73
93;Hierarchical-CB-8-CIRCLE_v5;1;1;22;"<?xml version=""1.0""?>\n<Clock xmlns:dt=""urn:schemas-microsoft-com:datatypes""><Description dt:dt=""string"">E-Prime Primary Realtime Clock</Description><StartTime><Timestamp dt:dt=""int"">0</Timestamp><DateUtc dt:dt=""string"">2017-05-14T13:58:50Z</DateUtc></StartTime><FrequencyChanges><FrequencyChange><Frequency dt:dt=""r8"">10000000</Frequency><Timestamp dt:dt=""r8"">21712191420</Timestamp><Current dt:dt=""r8"">0</Current><DateUtc dt:dt=""string"">2017-05-14T13:58:50Z</DateUtc></FrequencyChange></FrequencyChanges></Clock>\n";0.0;1;diestro;cris;239250258;05-14-2017;15:58:50;mujer;2;1.0;1.0;1.0;;;;experimental;blockproc;blocklist;92;1;0;2;1321856;6;6;GL;K;E;0;;0;7;1315184;{SPACE};6168;1321352;trialproc;6;0;;-999999;11;1321868;1;1125;1322993;triallist;BMPs/Ok.bmp;BMPs/Oa.bmp;BMPs/Of.bmp;BMPs/Ez.bmp;BMPs/Km.bmp;BMPs/Ke.bmp;BMPs/Zn.bmp;BMPs/No.bmp;BMPs/Ak.bmp;A;K;191.0;1.0;92.0;;;;29;73
94;Hierarchical-CB-8-CIRCLE_v5;1;1;22;"<?xml version=""1.0""?>\n<Clock xmlns:dt=""urn:schemas-microsoft-com:datatypes""><Description dt:dt=""string"">E-Prime Primary Realtime Clock</Description><StartTime><Timestamp dt:dt=""int"">0</Timestamp><DateUtc dt:dt=""string"">2017-05-14T13:58:50Z</DateUtc></StartTime><FrequencyChanges><FrequencyChange><Frequency dt:dt=""r8"">10000000</Frequency><Timestamp dt:dt=""r8"">21712191420</Timestamp><Current dt:dt=""r8"">0</Current><DateUtc dt:dt=""string"">2017-05-14T13:58:50Z</DateUtc></FrequencyChange></FrequencyChanges></Clock>\n";0.0;1;diestro;cris;239250258;05-14-2017;15:58:50;mujer;2;1.0;1.0;1.0;;;;experimental;blockproc;blocklist;93;1;0;2;1339163;3;3;G;U;Z;0;;0;6;1327233;{SPACE};11426;1338659;trialproc;3;0;;-999999;8;1339172;1;1069;1340241;triallist;BMPs/Kz.bmp;BMPs/Nf.bmp;BMPs/Uz.bmp;BMPs/Um.bmp;BMPs/Ec.bmp;BMPs/Ef.bmp;BMPs/Ma.bmp;BMPs/Kh.bmp;BMPs/Hz.bmp;H;Z;843.0;1.0;93.0;;;;80;50
95;Hierarchical-CB-8-CIRCLE_v5;1;1;22;"<?xml version=""1.0""?>\n<Clock xmlns:dt=""urn:schemas-microsoft-com:datatypes""><Description dt:dt=""string"">E-Prime Primary Realtime Clock</Description><StartTime><Timestamp dt:dt=""int"">0</Timestamp><DateUtc dt:dt=""string"">2017-05-14T13:58:50Z</DateUtc></StartTime><FrequencyChanges><FrequencyChange><Frequency dt:dt=""r8"">10000000</Frequency><Timestamp dt:dt=""r8"">21712191420</Timestamp><Current dt:dt=""r8"">0</Current><DateUtc dt:dt=""string"">2017-05-14T13:58:50Z</DateUtc></FrequencyChange></FrequencyChanges></Clock>\n";0.0;1;diestro;cris;239250258;05-14-2017;15:58:50;mujer;2;1.0;1.0;1.0;;;;experimental;blockproc;blocklist;94;1;1;1;1352344;8;8;GL;H;O;0;;0;6;1343106;{SPACE};8735;1351841;trialproc;8;0;;-999999;10;1352355;1;1111;1353466;triallist;BMPs/Ah.bmp;BMPs/Mu.bmp;BMPs/Ha.bmp;BMPs/Kc.bmp;BMPs/Eh.bmp;BMPs/Co.bmp;BMPs/Zc.bmp;BMPs/Ho.bmp;BMPs/Oa.bmp;O;A;144.0;1.0;94.0;;;;29;27
96;Hierarchical-CB-8-CIRCLE_v5;1;1;22;"<?xml version=""1.0""?>\n<Clock xmlns:dt=""urn:schemas-microsoft-com:datatypes""><Description dt:dt=""string"">E-Prime Primary Realtime Clock</Description><StartTime><Timestamp dt:dt=""int"">0</Timestamp><DateUtc dt:dt=""string"">2017-05-14T13:58:50Z</DateUtc></StartTime><FrequencyChanges><FrequencyChange><Frequency dt:dt=""r8"">10000000</Frequency><Timestamp dt:dt=""r8"">21712191420</Timestamp><Current dt:dt=""r8"">0</Current><DateUtc dt:dt=""string"">2017-05-14T13:58:50Z</DateUtc></FrequencyChange></FrequencyChanges></Clock>\n";0.0;1;diestro;cris;239250258;05-14-2017;15:58:50;mujer;2;1.0;1.0;1.0;;;;experimental;blockproc;blocklist;95;1;0;2;1361809;5;5;G;H;U;0;;0;6;1357004;{SPACE};4301;1361305;trialproc;5;0;;-999999;8;1361818;1;1092;1362910;triallist;BMPs/He.bmp;BMPs/Kc.bmp;BMPs/Ea.bmp;BMPs/Zu.bmp;BMPs/Hu.bmp;BMPs/Ca.bmp;BMPs/Ah.bmp;BMPs/Mc.bmp;BMPs/Eu.bmp;E;U;812.0;1.0;95.0;;;;50;85
97;Hierarchical-CB-8-CIRCLE_v5;1;1;22;"<?xml version=""1.0""?>\n<Clock xmlns:dt=""urn:schemas-microsoft-com:datatypes""><Description dt:dt=""string"">E-Prime Primary Realtime Clock</Description><StartTime><Timestamp dt:dt=""int"">0</Timestamp><DateUtc dt:dt=""string"">2017-05-14T13:58:50Z</DateUtc></StartTime><FrequencyChanges><FrequencyChange><Frequency dt:dt=""r8"">10000000</Frequency><Timestamp dt:dt=""r8"">21712191420</Timestamp><Current dt:dt=""r8"">0</Current><DateUtc dt:dt=""string"">2017-05-14T13:58:50Z</DateUtc></FrequencyChange></FrequencyChanges></Clock>\n";0.0;1;diestro;cris;239250258;05-14-2017;15:58:50;mujer;2;1.0;1.0;1.0;;;;experimental;blockproc;blocklist;96;1;0;2;1372308;5;5;G;Z;F;0;;0;11;1365847;{SPACE};5957;1371804;trialproc;5;0;;-999999;8;1372317;1;356;1372673;triallist;BMPs/An.bmp;BMPs/Mo.bmp;BMPs/Fc.bmp;BMPs/Ch.bmp;BMPs/Zf.bmp;BMPs/Am.bmp;BMPs/Ou.bmp;BMPs/En.bmp;BMPs/Nf.bmp;N;F;615.0;1.0;96.0;;;;50;85
98;Hierarchical-CB-8-CIRCLE_v5;1;1;22;"<?xml version=""1.0""?>\n<Clock xmlns:dt=""urn:schemas-microsoft-com:datatypes""><Description dt:dt=""string"">E-Prime Primary Realtime Clock</Description><StartTime><Timestamp dt:dt=""int"">0</Timestamp><DateUtc dt:dt=""string"">2017-05-14T13:58:50Z</DateUtc></StartTime><FrequencyChanges><FrequencyChange><Frequency dt:dt=""r8"">10000000</Frequency><Timestamp dt:dt=""r8"">21712191420</Timestamp><Current dt:dt=""r8"">0</Current><DateUtc dt:dt=""string"">2017-05-14T13:58:50Z</DateUtc></FrequencyChange></FrequencyChanges></Clock>\n";0.0;1;diestro;cris;239250258;05-14-2017;15:58:50;mujer;2;1.0;1.0;1.0;;;;experimental;blockproc;blocklist;97;1;0;3;1385617;2;2;L;Z;K;0;;0;8;1375554;{SPACE};9558;1385112;trialproc;2;0;;-999999;8;1385626;1;945;1386571;triallist;BMPs/Ac.bmp;BMPs/Zk.bmp;BMPs/Ck.bmp;BMPs/Nu.bmp;BMPs/No.bmp;BMPs/Zc.bmp;BMPs/Oa.bmp;BMPs/Hf.bmp;BMPs/Za.bmp;Z;A;451.0;1.0;97.0;;;;71;28
99;Hierarchical-CB-8-CIRCLE_v5;1;1;22;"<?xml version=""1.0""?>\n<Clock xmlns:dt=""urn:schemas-microsoft-com:datatypes""><Description dt:dt=""string"">E-Prime Primary Realtime Clock</Description><StartTime><Timestamp dt:dt=""int"">0</Timestamp><DateUtc dt:dt=""string"">2017-05-14T13:58:50Z</DateUtc></StartTime><FrequencyChanges><FrequencyChange><Frequency dt:dt=""r8"">10000000</Frequency><Timestamp dt:dt=""r8"">21712191420</Timestamp><Current dt:dt=""r8"">0</Current><DateUtc dt:dt=""string"">2017-05-14T13:58:50Z</DateUtc></FrequencyChange></FrequencyChanges></Clock>\n";0.0;1;diestro;cris;239250258;05-14-2017;15:58:50;mujer;2;1.0;1.0;1.0;;;;experimental;blockproc;blocklist;98;1;1;2;1392745;3;3;GL;A;O;0;;0;6;1390072;{SPACE};2169;1392241;trialproc;3;0;;-999999;9;1392755;1;679;1393434;triallist;BMPs/Ac.bmp;BMPs/Mh.bmp;BMPs/Ao.bmp;BMPs/Mc.bmp;BMPs/Za.bmp;BMPs/Fe.bmp;BMPs/Em.bmp;BMPs/Hf.bmp;BMPs/Kc.bmp;K;C;316.0;1.0;98.0;;;;80;50
100;Hierarchical-CB-8-CIRCLE_v5;1;1;22;"<?xml version=""1.0""?>\n<Clock xmlns:dt=""urn:schemas-microsoft-com:datatypes""><Description dt:dt=""string"">E-Prime Primary Realtime Clock</Description><StartTime><Timestamp dt:dt=""int"">0</Timestamp><DateUtc dt:dt=""string"">2017-05-14T13:58:50Z</DateUtc></StartTime><FrequencyChanges><FrequencyChange><Frequency dt:dt=""r8"">10000000</Frequency><Timestamp dt:dt=""r8"">21712191420</Timestamp><Current dt:dt=""r8"">0</Current><DateUtc dt:dt=""string"">2017-05-14T13:58:50Z</DateUtc></FrequencyChange></FrequencyChanges></Clock>\n";0.0;1;diestro;cris;239250258;05-14-2017;15:58:50;mujer;2;1.0;1.0;1.0;;;;experimental;blockproc;blocklist;99;1;0;2;1414086;8;8;L;M;U;0;;0;7;1396500;{SPACE};17082;1413582;trialproc;8;0;;-999999;10;1414097;1;1789;1415886;triallist;BMPs/Ca.bmp;BMPs/Ok.bmp;BMPs/Ck.bmp;BMPs/Un.bmp;BMPs/Zk.bmp;BMPs/Ma.bmp;BMPs/Ak.bmp;BMPs/Mu.bmp;BMPs/Mc.bmp;M;C;468.0;1.0;99.0;;;;29;27
101;Hierarchical-CB-8-CIRCLE_v5;1;1;22;"<?xml version=""1.0""?>\n<Clock xmlns:dt=""urn:schemas-microsoft-com:datatypes""><Description dt:dt=""string"">E-Prime Primary Realtime Clock</Description><StartTime><Timestamp dt:dt=""int"">0</Timestamp><DateUtc dt:dt=""string"">2017-05-14T13:58:50Z</DateUtc></StartTime><FrequencyChanges><FrequencyChange><Frequency dt:dt=""r8"">10000000</Frequency><Timestamp dt:dt=""r8"">21712191420</Timestamp><Current dt:dt=""r8"">0</Current><DateUtc dt:dt=""string"">2017-05-14T13:58:50Z</DateUtc></FrequencyChange></FrequencyChanges></Clock>\n";0.0;1;diestro;cris;239250258;05-14-2017;15:58:50;mujer;2;1.0;1.0;1.0;;;;experimental;blockproc;blocklist;100;1;0;2;1421416;1;1;GL;A;U;0;;0;7;1418824;{SPACE};2088;1420912;trialproc;1;0;;-999999;15;1421432;1;802;1422234;triallist;BMPs/Au.bmp;BMPs/Ea.bmp;BMPs/Fh.bmp;BMPs/Zn.bmp;BMPs/Nz.bmp;BMPs/On.bmp;BMPs/Ao.bmp;BMPs/Ah.bmp;BMPs/Oe.bmp;O;E;181.0;1.0;100.0;;;;50;15
102;Hierarchical-CB-8-CIRCLE_v5;1;1;22;"<?xml version=""1.0""?>\n<Clock xmlns:dt=""urn:schemas-microsoft-com:datatypes""><Description dt:dt=""string"">E-Prime Primary Realtime Clock</Description><StartTime><Timestamp dt:dt=""int"">0</Timestamp><DateUtc dt:dt=""string"">2017-05-14T13:58:50Z</DateUtc></StartTime><FrequencyChanges><FrequencyChange><Frequency dt:dt=""r8"">10000000</Frequency><Timestamp dt:dt=""r8"">21712191420</Timestamp><Current dt:dt=""r8"">0</Current><DateUtc dt:dt=""string"">2017-05-14T13:58:50Z</DateUtc></FrequencyChange></FrequencyChanges></Clock>\n";0.0;1;diestro;cris;239250258;05-14-2017;15:58:50;mujer;2;1.0;1.0;1.0;;;;experimental;blockproc;blocklist;101;1;0;2;1430573;5;5;G;Z;E;0;;0;6;1425062;{SPACE};5007;1430069;trialproc;5;0;;-999999;11;1430585;1;873;1431458;triallist;BMPs/Kh.bmp;BMPs/Ck.bmp;BMPs/Fo.bmp;BMPs/En.bmp;BMPs/Ze.bmp;BMPs/Eo.bmp;BMPs/Uz.bmp;BMPs/Uh.bmp;BMPs/Ke.bmp;K;E;693.0;1.0;101.0;;;;50;85
103;Hierarchical-CB-8-CIRCLE_v5;1;1;22;"<?xml version=""1.0""?>\n<Clock xmlns:dt=""urn:schemas-microsoft-com:datatypes""><Description dt:dt=""string"">E-Prime Primary Realtime Clock</Description><StartTime><Timestamp dt:dt=""int"">0</Timestamp><DateUtc dt:dt=""string"">2017-05-14T13:58:50Z</DateUtc></StartTime><FrequencyChanges><FrequencyChange><Frequency dt:dt=""r8"">10000000</Frequency><Timestamp dt:dt=""r8"">21712191420</Timestamp><Current dt:dt=""r8"">0</Current><DateUtc dt:dt=""string"">2017-05-14T13:58:50Z</DateUtc></FrequencyChange></FrequencyChanges></Clock>\n";0.0;1;diestro;cris;239250258;05-14-2017;15:58:50;mujer;2;1.0;1.0;1.0;;;;experimental;blockproc;blocklist;102;1;0;2;1447674;3;3;L;O;F;0;;0;6;1434299;{SPACE};12871;1447170;trialproc;3;0;;-999999;9;1447684;1;692;1448376;triallist;BMPs/Ce.bmp;BMPs/Eh.bmp;BMPs/Of.bmp;BMPs/Hm.bmp;BMPs/Nc.bmp;BMPs/Kh.bmp;BMPs/Nf.bmp;BMPs/Hf.bmp;BMPs/Oe.bmp;O;E;639.0;1.0;102.0;;;;80;50
104;Hierarchical-CB-8-CIRCLE_v5;1;1;22;"<?xml version=""1.0""?>\n<Clock xmlns:dt=""urn:schemas-microsoft-com:datatypes""><Description dt:dt=""string"">E-Prime Primary Realtime Clock</Description><StartTime><Timestamp dt:dt=""int"">0</Timestamp><DateUtc dt:dt=""string"">2017-05-14T13:58:50Z</DateUtc></StartTime><FrequencyChanges><FrequencyChange><Frequency dt:dt=""r8"">10000000</Frequency><Timestamp dt:dt=""r8"">21712191420</Timestamp><Current dt:dt=""r8"">0</Current><DateUtc dt:dt=""string"">2017-05-14T13:58:50Z</DateUtc></FrequencyChange></FrequencyChanges></Clock>\n";0.0;1;diestro;cris;239250258;05-14-2017;15:58:50;mujer;2;1.0;1.0;1.0;;;;experimental;blockproc;blocklist;103;1;0;2;1455153;8;8;G;U;C;0;;0;6;1451284;{SPACE};3365;1454649;trialproc;8;0;;-999999;9;1455163;1;798;1455961;triallist;BMPs/Zf.bmp;BMPs/Oe.bmp;BMPs/Kf.bmp;BMPs/Mu.bmp;BMPs/Ec.bmp;BMPs/Ke.bmp;BMPs/Ch.bmp;BMPs/Uc.bmp;BMPs/Ac.bmp;A;C;755.0;1.0;103.0;;;;29;27
105;Hierarchical-CB-8-CIRCLE_v5;1;1;22;"<?xml version=""1.0""?>\n<Clock xmlns:dt=""urn:schemas-microsoft-com:datatypes""><Description dt:dt=""string"">E-Prime Primary Realtime Clock</Description><StartTime><Timestamp dt:dt=""int"">0</Timestamp><DateUtc dt:dt=""string"">2017-05-14T13:58:50Z</DateUtc></StartTime><FrequencyChanges><FrequencyChange><Frequency dt:dt=""r8"">10000000</Frequency><Timestamp dt:dt=""r8"">21712191420</Timestamp><Current dt:dt=""r8"">0</Current><DateUtc dt:dt=""string"">2017-05-14T13:58:50Z</DateUtc></FrequencyChange></FrequencyChanges></Clock>\n";0.0;1;diestro;cris;239250258;05-14-2017;15:58:50;mujer;2;1.0;1.0;1.0;;;;experimental;blockproc;blocklist;104;1;0;2;1463838;2;2;G;U;A;0;;0;7;1458772;{SPACE};4562;1463334;trialproc;2;0;;-999999;8;1463847;1;829;1464676;triallist;BMPs/Fa.bmp;BMPs/Ua.bmp;BMPs/Ka.bmp;BMPs/An.bmp;BMPs/Nh.bmp;BMPs/He.bmp;BMPs/Na.bmp;BMPs/On.bmp;BMPs/Ha.bmp;H;A;909.0;1.0;104.0;;;;71;28
106;Hierarchical-CB-8-CIRCLE_v5;1;1;22;"<?xml version=""1.0""?>\n<Clock xmlns:dt=""urn:schemas-microsoft-com:datatypes""><Description dt:dt=""string"">E-Prime Primary Realtime Clock</Description><StartTime><Timestamp dt:dt=""int"">0</Timestamp><DateUtc dt:dt=""string"">2017-05-14T13:58:50Z</DateUtc></StartTime><FrequencyChanges><FrequencyChange><Frequency dt:dt=""r8"">10000000</Frequency><Timestamp dt:dt=""r8"">21712191420</Timestamp><Current dt:dt=""r8"">0</Current><DateUtc dt:dt=""string"">2017-05-14T13:58:50Z</DateUtc></FrequencyChange></FrequencyChanges></Clock>\n";0.0;1;diestro;cris;239250258;05-14-2017;15:58:50;mujer;2;1.0;1.0;1.0;;;;experimental;blockproc;blocklist;105;1;0;2;1475734;3;3;GL;E;O;0;;0;6;1467478;{SPACE};7752;1475230;trialproc;3;0;;-999999;10;1475745;1;381;1476126;triallist;BMPs/Uo.bmp;BMPs/Cn.bmp;BMPs/Eo.bmp;BMPs/Me.bmp;BMPs/Ao.bmp;BMPs/Mc.bmp;BMPs/Hn.bmp;BMPs/Ec.bmp;BMPs/Ca.bmp;C;A;150.0;1.0;105.0;;;;80;50
107;Hierarchical-CB-8-CIRCLE_v5;1;1;22;"<?xml version=""1.0""?>\n<Clock xmlns:dt=""urn:schemas-microsoft-com:datatypes""><Description dt:dt=""string"">E-Prime Primary Realtime Clock</Description><StartTime><Timestamp dt:dt=""int"">0</Timestamp><DateUtc dt:dt=""string"">2017-05-14T13:58:50Z</DateUtc></StartTime><FrequencyChanges><FrequencyChange><Frequency dt:dt=""r8"">10000000</Frequency><Timestamp dt:dt=""r8"">21712191420</Timestamp><Current dt:dt=""r8"">0</Current><DateUtc dt:dt=""string"">2017-05-14T13:58:50Z</DateUtc></FrequencyChange></FrequencyChanges></Clock>\n";0.0;1;diestro;cris;239250258;05-14-2017;15:58:50;mujer;2;1.0;1.0;1.0;;;;experimental;blockproc;blocklist;106;1;0;2;1494749;7;7;L;H;N;0;;0;6;1479210;{SPACE};15035;1494245;trialproc;7;0;;-999999;10;1494760;1;1071;1495831;triallist;BMPs/Hc.bmp;BMPs/Ao.bmp;BMPs/Zk.bmp;BMPs/Nk.bmp;BMPs/Cn.bmp;BMPs/Hf.bmp;BMPs/Hn.bmp;BMPs/Na.bmp;BMPs/Hz.bmp;H;Z;976.0;1.0;106.0;;;;20;50
108;Hierarchical-CB-8-CIRCLE_v5;1;1;22;"<?xml version=""1.0""?>\n<Clock xmlns:dt=""urn:schemas-microsoft-com:datatypes""><Description dt:dt=""string"">E-Prime Primary Realtime Clock</Description><StartTime><Timestamp dt:dt=""int"">0</Timestamp><DateUtc dt:dt=""string"">2017-05-14T13:58:50Z</DateUtc></StartTime><FrequencyChanges><FrequencyChange><Frequency dt:dt=""r8"">10000000</Frequency><Timestamp dt:dt=""r8"">21712191420</Timestamp><Current dt:dt=""r8"">0</Current><DateUtc dt:dt=""string"">2017-05-14T13:58:50Z</DateUtc></FrequencyChange></FrequencyChanges></Clock>\n";0.0;1;diestro;cris;239250258;05-14-2017;15:58:50;mujer;2;1.0;1.0;1.0;;;;experimental;blockproc;blocklist;107;1;0;2;1503877;4;4;G;A;U;0;;0;6;1498671;{SPACE};4702;1503373;trialproc;4;0;;-999999;9;1503887;1;924;1504811;triallist;BMPs/Nm.bmp;BMPs/On.bmp;BMPs/Nz.bmp;BMPs/Au.bmp;BMPs/Co.bmp;BMPs/Fn.bmp;BMPs/Oz.bmp;BMPs/Fk.bmp;BMPs/Ku.bmp;K;U;936.0;1.0;107.0;;;;71;73
